millis,stamp,datetime,accX,accY,accZ,gyroX,gyroY,gyroZ,compX,compY,compZ
922510, 1710334154, "2024/3/13 12:49:14",  8,  -59,  1002,  0,  -1,  0,  -10,  -26,  -35
922710, 1710334154, "2024/3/13 12:49:14",  6,  -57,  1005,  0,  0,  -1,  -10,  -28,  -34
922910, 1710334154, "2024/3/13 12:49:14",  6,  -60,  1002,  0,  0,  -1,  -11,  -25,  -35
923110, 1710334154, "2024/3/13 12:49:14",  3,  -61,  1002,  0,  0,  -1,  -9,  -27,  -34
923310, 1710334154, "2024/3/13 12:49:14",  6,  -60,  1007,  0,  0,  -1,  -11,  -27,  -34
923510, 1710334155, "2024/3/13 12:49:15",  4,  -63,  1000,  0,  0,  -1,  -10,  -26,  -35
923710, 1710334155, "2024/3/13 12:49:15",  8,  -60,  1007,  0,  0,  0,  -9,  -27,  -35
923910, 1710334155, "2024/3/13 12:49:15",  3,  -62,  1005,  0,  -1,  -1,  -11,  -24,  -35
924110, 1710334155, "2024/3/13 12:49:15",  5,  -61,  1002,  0,  -1,  -1,  -10,  -25,  -35
924310, 1710334155, "2024/3/13 12:49:15",  5,  -60,  1005,  0,  0,  -1,  -10,  -26,  -33
924510, 1710334156, "2024/3/13 12:49:16",  4,  -61,  1009,  0,  0,  -1,  -10,  -25,  -34
924710, 1710334156, "2024/3/13 12:49:16",  7,  -63,  1005,  0,  0,  -1,  -9,  -26,  -34
924910, 1710334156, "2024/3/13 12:49:16",  2,  -61,  1003,  0,  0,  -1,  -11,  -27,  -34
925110, 1710334156, "2024/3/13 12:49:16",  4,  -57,  1002,  0,  0,  -1,  -11,  -27,  -36
925310, 1710334156, "2024/3/13 12:49:16",  5,  -60,  1002,  0,  0,  -1,  -11,  -26,  -36
925510, 1710334157, "2024/3/13 12:49:17",  0,  -61,  1003,  0,  -1,  -1,  -11,  -26,  -33
925710, 1710334157, "2024/3/13 12:49:17",  1,  -60,  999,  0,  0,  -1,  -11,  -26,  -35
925910, 1710334157, "2024/3/13 12:49:17",  5,  -58,  1001,  0,  0,  -1,  -12,  -26,  -35
926110, 1710334157, "2024/3/13 12:49:17",  0,  -59,  1006,  0,  0,  -1,  -10,  -27,  -35
926310, 1710334157, "2024/3/13 12:49:17",  2,  -55,  1006,  0,  -1,  -1,  -9,  -26,  -35
926510, 1710334158, "2024/3/13 12:49:18",  5,  -61,  1004,  0,  -1,  0,  -10,  -27,  -34
926710, 1710334158, "2024/3/13 12:49:18",  4,  -57,  1004,  0,  0,  -1,  -11,  -25,  -36
926910, 1710334158, "2024/3/13 12:49:18",  5,  -56,  1003,  0,  0,  -1,  -10,  -28,  -33
927110, 1710334158, "2024/3/13 12:49:18",  11,  -61,  1006,  0,  0,  -1,  -11,  -25,  -35
927310, 1710334158, "2024/3/13 12:49:18",  2,  -53,  1003,  0,  0,  -1,  -11,  -25,  -34
927510, 1710334159, "2024/3/13 12:49:19",  5,  -59,  1003,  0,  0,  -1,  -11,  -24,  -34
927710, 1710334159, "2024/3/13 12:49:19",  8,  -55,  1003,  0,  0,  -1,  -10,  -25,  -34
927910, 1710334159, "2024/3/13 12:49:19",  3,  -51,  1003,  0,  0,  0,  -11,  -26,  -34
928110, 1710334159, "2024/3/13 12:49:19",  5,  -58,  998,  0,  0,  -1,  -10,  -24,  -36
928310, 1710334159, "2024/3/13 12:49:19",  4,  -59,  1001,  0,  0,  0,  -8,  -27,  -34
928510, 1710334160, "2024/3/13 12:49:20",  3,  -57,  1002,  0,  0,  -1,  -12,  -24,  -35
928710, 1710334160, "2024/3/13 12:49:20",  6,  -56,  1003,  0,  0,  0,  -11,  -27,  -34
928910, 1710334160, "2024/3/13 12:49:20",  8,  -57,  1003,  0,  0,  0,  -12,  -25,  -35
929110, 1710334160, "2024/3/13 12:49:20",  3,  -60,  1000,  0,  0,  -1,  -11,  -26,  -34
929310, 1710334160, "2024/3/13 12:49:20",  10,  -56,  1005,  0,  0,  -1,  -11,  -26,  -36
929510, 1710334161, "2024/3/13 12:49:21",  0,  -58,  1006,  0,  -1,  -1,  -10,  -26,  -36
929710, 1710334161, "2024/3/13 12:49:21",  2,  -58,  1002,  0,  0,  -1,  -12,  -25,  -34
929910, 1710334161, "2024/3/13 12:49:21",  3,  -58,  1000,  0,  0,  -1,  -10,  -25,  -36
930110, 1710334161, "2024/3/13 12:49:21",  1,  -63,  1000,  0,  0,  0,  -10,  -26,  -34
930310, 1710334161, "2024/3/13 12:49:21",  6,  -58,  1002,  0,  0,  0,  -10,  -28,  -35
930510, 1710334162, "2024/3/13 12:49:22",  2,  -57,  1002,  0,  0,  -1,  -11,  -25,  -34
930710, 1710334162, "2024/3/13 12:49:22",  6,  -59,  1000,  0,  0,  -1,  -11,  -24,  -37
930910, 1710334162, "2024/3/13 12:49:22",  10,  -56,  1003,  0,  0,  -1,  -11,  -27,  -35
931110, 1710334162, "2024/3/13 12:49:22",  3,  -58,  1007,  0,  0,  -1,  -10,  -26,  -34
931310, 1710334162, "2024/3/13 12:49:22",  6,  -63,  1003,  0,  0,  -1,  -10,  -25,  -34
931510, 1710334163, "2024/3/13 12:49:23",  4,  -52,  1000,  0,  0,  0,  -11,  -28,  -34
931710, 1710334163, "2024/3/13 12:49:23",  4,  -57,  1000,  0,  0,  -1,  -8,  -26,  -34
931910, 1710334163, "2024/3/13 12:49:23",  3,  -58,  1004,  0,  -1,  -1,  -9,  -26,  -33
932110, 1710334163, "2024/3/13 12:49:23",  3,  -56,  1005,  0,  -1,  -1,  -11,  -25,  -34
932310, 1710334163, "2024/3/13 12:49:23",  6,  -61,  1005,  0,  0,  0,  -12,  -27,  -35
932510, 1710334164, "2024/3/13 12:49:24",  1,  -59,  1002,  0,  0,  -1,  -8,  -25,  -35
932710, 1710334164, "2024/3/13 12:49:24",  4,  -55,  999,  0,  0,  0,  -10,  -26,  -35
932910, 1710334164, "2024/3/13 12:49:24",  5,  -66,  1007,  0,  0,  -1,  -12,  -26,  -33
933110, 1710334164, "2024/3/13 12:49:24",  3,  -61,  1001,  0,  0,  0,  -9,  -25,  -35
933310, 1710334164, "2024/3/13 12:49:24",  2,  -65,  1004,  0,  0,  0,  -12,  -24,  -34
933510, 1710334165, "2024/3/13 12:49:25",  10,  -63,  1000,  0,  0,  0,  -11,  -26,  -36
933710, 1710334165, "2024/3/13 12:49:25",  7,  -61,  1007,  0,  0,  -1,  -11,  -27,  -35
933910, 1710334165, "2024/3/13 12:49:25",  1,  -63,  1008,  0,  0,  0,  -11,  -25,  -35
934110, 1710334165, "2024/3/13 12:49:25",  5,  -50,  1004,  0,  0,  0,  -10,  -27,  -35
934310, 1710334165, "2024/3/13 12:49:25",  6,  -57,  1000,  0,  0,  -1,  -11,  -27,  -35
934510, 1710334166, "2024/3/13 12:49:26",  4,  -51,  1005,  0,  0,  0,  -11,  -25,  -35
934710, 1710334166, "2024/3/13 12:49:26",  6,  -56,  1007,  0,  -1,  -1,  -11,  -25,  -35
934910, 1710334166, "2024/3/13 12:49:26",  5,  -61,  1005,  0,  0,  -1,  -10,  -25,  -36
935110, 1710334166, "2024/3/13 12:49:26",  5,  -56,  1004,  0,  0,  -1,  -12,  -25,  -34
935310, 1710334166, "2024/3/13 12:49:26",  9,  -60,  1004,  0,  0,  -1,  -11,  -26,  -34
935510, 1710334167, "2024/3/13 12:49:27",  2,  -60,  1008,  0,  0,  -1,  -11,  -26,  -34
935710, 1710334167, "2024/3/13 12:49:27",  7,  -58,  1006,  0,  0,  -1,  -10,  -25,  -35
935910, 1710334167, "2024/3/13 12:49:27",  6,  -56,  1009,  0,  0,  -1,  -11,  -24,  -36
936110, 1710334167, "2024/3/13 12:49:27",  4,  -56,  1004,  0,  -1,  -1,  -11,  -26,  -36
936310, 1710334167, "2024/3/13 12:49:27",  2,  -60,  1001,  0,  0,  0,  -11,  -26,  -34
936510, 1710334168, "2024/3/13 12:49:28",  10,  -56,  1005,  0,  0,  -1,  -8,  -25,  -34
936710, 1710334168, "2024/3/13 12:49:28",  7,  -56,  1007,  0,  0,  -1,  -10,  -25,  -33
936910, 1710334168, "2024/3/13 12:49:28",  9,  -59,  1007,  0,  0,  -1,  -10,  -25,  -35
937110, 1710334168, "2024/3/13 12:49:28",  4,  -63,  1005,  0,  0,  -1,  -11,  -25,  -35
937310, 1710334168, "2024/3/13 12:49:28",  6,  -56,  1005,  0,  -1,  -1,  -10,  -25,  -34
937510, 1710334169, "2024/3/13 12:49:29",  6,  -57,  1006,  0,  0,  -1,  -12,  -27,  -36
937710, 1710334169, "2024/3/13 12:49:29",  7,  -58,  1010,  0,  0,  -1,  -10,  -25,  -36
937910, 1710334169, "2024/3/13 12:49:29",  -1,  -59,  1010,  0,  0,  -1,  -10,  -26,  -35
938110, 1710334169, "2024/3/13 12:49:29",  -2,  -57,  1001,  0,  0,  0,  -11,  -26,  -34
938310, 1710334169, "2024/3/13 12:49:29",  3,  -56,  1002,  0,  0,  -1,  -11,  -27,  -35
938510, 1710334170, "2024/3/13 12:49:30",  0,  -52,  1003,  0,  -1,  0,  -10,  -25,  -33
938710, 1710334170, "2024/3/13 12:49:30",  3,  -60,  1009,  0,  -1,  -1,  -11,  -27,  -33
938910, 1710334170, "2024/3/13 12:49:30",  6,  -56,  1004,  0,  0,  0,  -12,  -27,  -35
939110, 1710334170, "2024/3/13 12:49:30",  1,  -53,  1001,  0,  0,  -1,  -10,  -27,  -33
939310, 1710334170, "2024/3/13 12:49:30",  4,  -53,  1005,  0,  0,  0,  -9,  -26,  -35
939510, 1710334171, "2024/3/13 12:49:31",  4,  -57,  1007,  0,  0,  0,  -11,  -26,  -36
939710, 1710334171, "2024/3/13 12:49:31",  8,  -70,  1003,  0,  0,  0,  -10,  -26,  -34
939910, 1710334171, "2024/3/13 12:49:31",  4,  -58,  1004,  0,  -1,  -1,  -13,  -26,  -33
940110, 1710334171, "2024/3/13 12:49:31",  5,  -59,  1004,  0,  0,  0,  -11,  -25,  -33
940310, 1710334171, "2024/3/13 12:49:31",  3,  -60,  1003,  0,  -1,  0,  -10,  -25,  -35
940510, 1710334172, "2024/3/13 12:49:32",  9,  -61,  1005,  0,  0,  -1,  -10,  -26,  -35
940710, 1710334172, "2024/3/13 12:49:32",  10,  -57,  1003,  0,  0,  -1,  -8,  -24,  -34
940910, 1710334172, "2024/3/13 12:49:32",  1,  -57,  1002,  0,  0,  0,  -9,  -27,  -34
941110, 1710334172, "2024/3/13 12:49:32",  3,  -54,  1004,  0,  0,  -1,  -10,  -26,  -34
941310, 1710334172, "2024/3/13 12:49:32",  5,  -56,  1004,  0,  0,  -1,  -11,  -26,  -35
941510, 1710334173, "2024/3/13 12:49:33",  5,  -59,  1003,  0,  0,  0,  -12,  -27,  -36
941710, 1710334173, "2024/3/13 12:49:33",  4,  -57,  1005,  0,  0,  0,  -11,  -25,  -34
941910, 1710334173, "2024/3/13 12:49:33",  3,  -57,  1004,  0,  0,  -1,  -11,  -26,  -36
942110, 1710334173, "2024/3/13 12:49:33",  9,  -61,  1004,  0,  0,  0,  -11,  -25,  -35
942310, 1710334173, "2024/3/13 12:49:33",  7,  -61,  1003,  0,  0,  -1,  -11,  -26,  -34
942510, 1710334174, "2024/3/13 12:49:34",  6,  -58,  1004,  0,  0,  -1,  -11,  -25,  -36
942710, 1710334174, "2024/3/13 12:49:34",  15,  -59,  1004,  0,  0,  -1,  -9,  -25,  -35
942910, 1710334174, "2024/3/13 12:49:34",  3,  -56,  1002,  0,  0,  -1,  -11,  -27,  -33
943110, 1710334174, "2024/3/13 12:49:34",  0,  -60,  1007,  0,  -1,  0,  -11,  -25,  -35
943310, 1710334174, "2024/3/13 12:49:34",  5,  -61,  1005,  0,  0,  0,  -10,  -26,  -35
943510, 1710334175, "2024/3/13 12:49:35",  10,  -59,  1003,  0,  0,  0,  -10,  -25,  -34
943710, 1710334175, "2024/3/13 12:49:35",  4,  -59,  1001,  0,  0,  0,  -11,  -27,  -35
943910, 1710334175, "2024/3/13 12:49:35",  3,  -58,  1005,  0,  0,  -1,  -9,  -25,  -34
944110, 1710334175, "2024/3/13 12:49:35",  -2,  -61,  1010,  0,  0,  0,  -11,  -27,  -35
944310, 1710334175, "2024/3/13 12:49:35",  -1,  -53,  1002,  0,  0,  -1,  -10,  -25,  -35
944510, 1710334176, "2024/3/13 12:49:36",  2,  -54,  1002,  0,  -1,  -1,  -10,  -26,  -36
944710, 1710334176, "2024/3/13 12:49:36",  4,  -58,  1008,  0,  0,  -1,  -11,  -27,  -35
944910, 1710334176, "2024/3/13 12:49:36",  7,  -63,  1005,  0,  0,  -1,  -12,  -25,  -34
945110, 1710334176, "2024/3/13 12:49:36",  6,  -63,  1009,  0,  0,  0,  -10,  -25,  -34
945310, 1710334176, "2024/3/13 12:49:36",  7,  -62,  1001,  0,  0,  -1,  -11,  -27,  -34
945510, 1710334177, "2024/3/13 12:49:37",  10,  -64,  1004,  0,  0,  -1,  -11,  -25,  -35
945710, 1710334177, "2024/3/13 12:49:37",  8,  -58,  1005,  0,  0,  -1,  -10,  -27,  -35
945910, 1710334177, "2024/3/13 12:49:37",  6,  -54,  1003,  0,  0,  -1,  -10,  -26,  -35
946110, 1710334177, "2024/3/13 12:49:37",  3,  -60,  1005,  0,  0,  0,  -12,  -25,  -34
946310, 1710334177, "2024/3/13 12:49:37",  9,  -51,  993,  0,  0,  -1,  -10,  -24,  -34
946510, 1710334178, "2024/3/13 12:49:38",  0,  -56,  1002,  0,  -1,  -1,  -11,  -26,  -35
946710, 1710334178, "2024/3/13 12:49:38",  2,  -56,  1005,  0,  0,  -1,  -11,  -27,  -35
946910, 1710334178, "2024/3/13 12:49:38",  5,  -55,  1003,  0,  0,  -1,  -9,  -24,  -34
947110, 1710334178, "2024/3/13 12:49:38",  2,  -57,  1008,  0,  -1,  -1,  -10,  -26,  -35
947310, 1710334178, "2024/3/13 12:49:38",  7,  -62,  1004,  0,  0,  -1,  -10,  -27,  -33
947510, 1710334179, "2024/3/13 12:49:39",  8,  -54,  1004,  0,  0,  -1,  -11,  -25,  -34
947710, 1710334179, "2024/3/13 12:49:39",  5,  -64,  1000,  0,  0,  -1,  -9,  -25,  -36
947910, 1710334179, "2024/3/13 12:49:39",  9,  -58,  1000,  0,  0,  -1,  -9,  -26,  -33
948110, 1710334179, "2024/3/13 12:49:39",  6,  -57,  1005,  0,  0,  -1,  -10,  -26,  -34
948310, 1710334179, "2024/3/13 12:49:39",  5,  -64,  1002,  0,  0,  0,  -12,  -25,  -34
948510, 1710334180, "2024/3/13 12:49:40",  4,  -62,  1009,  0,  0,  -1,  -10,  -25,  -35
948710, 1710334180, "2024/3/13 12:49:40",  3,  -46,  1000,  0,  0,  -1,  -11,  -26,  -34
948910, 1710334180, "2024/3/13 12:49:40",  2,  -56,  1002,  0,  0,  0,  -11,  -26,  -35
949110, 1710334180, "2024/3/13 12:49:40",  1,  -63,  1000,  0,  0,  0,  -10,  -24,  -34
949310, 1710334180, "2024/3/13 12:49:40",  3,  -55,  1005,  0,  -1,  -1,  -10,  -26,  -35
949510, 1710334181, "2024/3/13 12:49:41",  4,  -63,  1003,  0,  0,  -1,  -12,  -25,  -35
949710, 1710334181, "2024/3/13 12:49:41",  5,  -58,  1008,  0,  0,  -1,  -11,  -25,  -36
949910, 1710334181, "2024/3/13 12:49:41",  2,  -55,  1001,  0,  0,  -1,  -11,  -26,  -36
950110, 1710334181, "2024/3/13 12:49:41",  2,  -65,  1003,  0,  0,  0,  -12,  -25,  -34
950310, 1710334181, "2024/3/13 12:49:41",  0,  -63,  1004,  0,  -1,  -1,  -12,  -24,  -34
950510, 1710334182, "2024/3/13 12:49:42",  6,  -60,  1001,  0,  0,  -1,  -10,  -27,  -33
950710, 1710334182, "2024/3/13 12:49:42",  5,  -58,  1009,  0,  0,  -1,  -10,  -25,  -34
950910, 1710334182, "2024/3/13 12:49:42",  6,  -58,  1007,  0,  0,  -1,  -11,  -26,  -34
951110, 1710334182, "2024/3/13 12:49:42",  7,  -55,  1003,  0,  0,  -1,  -9,  -25,  -33
951310, 1710334182, "2024/3/13 12:49:42",  7,  -51,  1003,  0,  0,  -1,  -10,  -25,  -35
951510, 1710334183, "2024/3/13 12:49:43",  4,  -61,  1006,  0,  0,  -1,  -9,  -26,  -35
951710, 1710334183, "2024/3/13 12:49:43",  -1,  -55,  1003,  0,  0,  0,  -9,  -26,  -35
951910, 1710334183, "2024/3/13 12:49:43",  10,  -59,  1005,  0,  0,  -1,  -10,  -26,  -34
952110, 1710334183, "2024/3/13 12:49:43",  4,  -54,  1001,  0,  -1,  0,  -11,  -27,  -34
952310, 1710334183, "2024/3/13 12:49:43",  7,  -59,  1007,  0,  -1,  -1,  -10,  -26,  -35
952510, 1710334184, "2024/3/13 12:49:44",  4,  -54,  1000,  0,  0,  0,  -10,  -27,  -36
952710, 1710334184, "2024/3/13 12:49:44",  6,  -58,  1004,  0,  0,  0,  -11,  -27,  -33
952910, 1710334184, "2024/3/13 12:49:44",  10,  -55,  1003,  0,  0,  0,  -13,  -24,  -35
953110, 1710334184, "2024/3/13 12:49:44",  4,  -58,  1005,  0,  0,  0,  -9,  -25,  -35
953310, 1710334184, "2024/3/13 12:49:44",  2,  -56,  1004,  0,  0,  -1,  -11,  -26,  -33
953510, 1710334185, "2024/3/13 12:49:45",  6,  -59,  1005,  0,  0,  -1,  -10,  -27,  -35
953710, 1710334185, "2024/3/13 12:49:45",  5,  -58,  1005,  0,  0,  -1,  -12,  -27,  -36
953910, 1710334185, "2024/3/13 12:49:45",  2,  -59,  1003,  0,  -1,  -1,  -10,  -25,  -34
954110, 1710334185, "2024/3/13 12:49:45",  8,  -56,  1004,  0,  0,  -1,  -11,  -25,  -34
954310, 1710334185, "2024/3/13 12:49:45",  6,  -61,  1006,  0,  0,  -1,  -10,  -24,  -34
954510, 1710334186, "2024/3/13 12:49:46",  4,  -59,  1004,  0,  0,  0,  -12,  -26,  -35
954710, 1710334186, "2024/3/13 12:49:46",  6,  -59,  1003,  0,  0,  0,  -11,  -27,  -35
954910, 1710334186, "2024/3/13 12:49:46",  6,  -53,  1005,  0,  0,  -1,  -10,  -27,  -33
955110, 1710334186, "2024/3/13 12:49:46",  7,  -56,  1002,  0,  0,  0,  -11,  -26,  -35
955310, 1710334186, "2024/3/13 12:49:46",  4,  -55,  1001,  0,  0,  0,  -10,  -25,  -36
955510, 1710334187, "2024/3/13 12:49:47",  8,  -63,  1004,  0,  0,  -1,  -11,  -27,  -36
955710, 1710334187, "2024/3/13 12:49:47",  6,  -60,  1004,  0,  0,  0,  -12,  -24,  -35
955910, 1710334187, "2024/3/13 12:49:47",  8,  -57,  1001,  0,  0,  0,  -12,  -26,  -35
956110, 1710334187, "2024/3/13 12:49:47",  2,  -57,  1004,  0,  -1,  -1,  -10,  -26,  -35
956310, 1710334187, "2024/3/13 12:49:47",  3,  -61,  1004,  0,  0,  -1,  -10,  -25,  -33
956510, 1710334188, "2024/3/13 12:49:48",  5,  -56,  1001,  0,  0,  -1,  -10,  -26,  -34
956710, 1710334188, "2024/3/13 12:49:48",  3,  -56,  1004,  0,  0,  -1,  -13,  -27,  -35
956910, 1710334188, "2024/3/13 12:49:48",  4,  -56,  1008,  0,  0,  -1,  -9,  -27,  -35
957110, 1710334188, "2024/3/13 12:49:48",  5,  -55,  1002,  0,  0,  0,  -10,  -26,  -34
957310, 1710334188, "2024/3/13 12:49:48",  11,  -59,  1004,  0,  -1,  0,  -11,  -27,  -35
957510, 1710334189, "2024/3/13 12:49:49",  7,  -58,  1003,  0,  -1,  -1,  -11,  -27,  -34
957710, 1710334189, "2024/3/13 12:49:49",  4,  -58,  1001,  0,  0,  -1,  -11,  -27,  -34
957910, 1710334189, "2024/3/13 12:49:49",  1,  -51,  1004,  0,  0,  0,  -9,  -27,  -35
958110, 1710334189, "2024/3/13 12:49:49",  6,  -58,  999,  0,  0,  -1,  -11,  -26,  -33
958310, 1710334189, "2024/3/13 12:49:49",  5,  -59,  1002,  0,  0,  0,  -9,  -26,  -34
958510, 1710334190, "2024/3/13 12:49:50",  1,  -55,  1009,  0,  0,  0,  -11,  -27,  -34
958710, 1710334190, "2024/3/13 12:49:50",  3,  -59,  1001,  0,  0,  -1,  -10,  -27,  -34
958910, 1710334190, "2024/3/13 12:49:50",  2,  -55,  1002,  0,  -1,  -1,  -10,  -28,  -34
959110, 1710334190, "2024/3/13 12:49:50",  3,  -57,  1003,  0,  0,  -1,  -9,  -26,  -34
959310, 1710334190, "2024/3/13 12:49:50",  8,  -62,  1002,  0,  0,  0,  -10,  -26,  -34
959510, 1710334191, "2024/3/13 12:49:51",  2,  -57,  1001,  0,  0,  -1,  -11,  -27,  -34
959710, 1710334191, "2024/3/13 12:49:51",  8,  -60,  1003,  0,  0,  0,  -9,  -26,  -35
959910, 1710334191, "2024/3/13 12:49:51",  2,  -53,  1003,  0,  0,  -1,  -10,  -26,  -34
960110, 1710334191, "2024/3/13 12:49:51",  7,  -53,  1003,  0,  0,  -1,  -10,  -26,  -34
960310, 1710334191, "2024/3/13 12:49:51",  7,  -59,  1003,  0,  0,  -1,  -9,  -28,  -34
960510, 1710334192, "2024/3/13 12:49:52",  7,  -53,  1005,  0,  0,  -1,  -10,  -26,  -33
960710, 1710334192, "2024/3/13 12:49:52",  9,  -58,  1004,  0,  0,  -1,  -11,  -27,  -34
960910, 1710334192, "2024/3/13 12:49:52",  5,  -54,  1002,  0,  0,  0,  -10,  -25,  -34
961110, 1710334192, "2024/3/13 12:49:52",  5,  -53,  1005,  0,  0,  0,  -9,  -27,  -34
961310, 1710334192, "2024/3/13 12:49:52",  0,  -57,  1004,  0,  0,  0,  -11,  -27,  -34
961510, 1710334193, "2024/3/13 12:49:53",  5,  -58,  1005,  0,  0,  -1,  -11,  -26,  -35
961710, 1710334193, "2024/3/13 12:49:53",  0,  -57,  1004,  0,  0,  -1,  -11,  -25,  -35
961910, 1710334193, "2024/3/13 12:49:53",  7,  -58,  1012,  0,  0,  0,  -10,  -26,  -36
962110, 1710334193, "2024/3/13 12:49:53",  4,  -49,  1006,  0,  0,  -1,  -9,  -27,  -35
962310, 1710334193, "2024/3/13 12:49:53",  -1,  -61,  1005,  0,  0,  -1,  -11,  -26,  -35
962510, 1710334194, "2024/3/13 12:49:54",  0,  -53,  1001,  0,  0,  0,  -9,  -27,  -34
962710, 1710334194, "2024/3/13 12:49:54",  4,  -56,  1003,  0,  -1,  -1,  -11,  -27,  -34
962910, 1710334194, "2024/3/13 12:49:54",  3,  -56,  1003,  0,  0,  -1,  -10,  -26,  -35
963110, 1710334194, "2024/3/13 12:49:54",  9,  -56,  1007,  0,  0,  0,  -10,  -27,  -33
963310, 1710334194, "2024/3/13 12:49:54",  3,  -59,  1003,  0,  0,  0,  -12,  -27,  -34
963510, 1710334195, "2024/3/13 12:49:55",  3,  -59,  1005,  0,  0,  -1,  -10,  -27,  -36
963710, 1710334195, "2024/3/13 12:49:55",  5,  -57,  1003,  0,  0,  0,  -11,  -25,  -34
963910, 1710334195, "2024/3/13 12:49:55",  1,  -56,  1003,  0,  0,  -1,  -11,  -26,  -35
964110, 1710334195, "2024/3/13 12:49:55",  2,  -60,  1005,  0,  -1,  -1,  -11,  -26,  -32
964310, 1710334195, "2024/3/13 12:49:55",  4,  -57,  1006,  0,  -1,  -1,  -11,  -27,  -34
964510, 1710334196, "2024/3/13 12:49:56",  2,  -52,  1003,  0,  0,  -1,  -10,  -26,  -36
964710, 1710334196, "2024/3/13 12:49:56",  1,  -52,  1003,  0,  0,  -1,  -12,  -25,  -33
964910, 1710334196, "2024/3/13 12:49:56",  5,  -57,  1003,  0,  0,  0,  -9,  -27,  -36
965110, 1710334196, "2024/3/13 12:49:56",  7,  -61,  1006,  0,  0,  -1,  -10,  -24,  -34
965310, 1710334196, "2024/3/13 12:49:56",  4,  -59,  1007,  0,  0,  -1,  -10,  -26,  -34
965510, 1710334197, "2024/3/13 12:49:57",  4,  -56,  1002,  0,  -1,  0,  -10,  -25,  -36
965710, 1710334197, "2024/3/13 12:49:57",  4,  -56,  1004,  0,  0,  -1,  -10,  -25,  -34
965910, 1710334197, "2024/3/13 12:49:57",  10,  -60,  1006,  0,  0,  -1,  -12,  -26,  -36
966110, 1710334197, "2024/3/13 12:49:57",  3,  -60,  1002,  0,  0,  0,  -10,  -25,  -33
966310, 1710334197, "2024/3/13 12:49:57",  4,  -60,  1002,  0,  0,  -1,  -12,  -26,  -35
966510, 1710334198, "2024/3/13 12:49:58",  7,  -52,  1002,  0,  0,  -1,  -12,  -25,  -35
966710, 1710334198, "2024/3/13 12:49:58",  8,  -62,  1004,  0,  0,  -1,  -10,  -27,  -34
966910, 1710334198, "2024/3/13 12:49:58",  3,  -60,  1002,  0,  0,  -1,  -12,  -27,  -34
967110, 1710334198, "2024/3/13 12:49:58",  5,  -59,  1000,  0,  0,  -1,  -10,  -26,  -34
967310, 1710334198, "2024/3/13 12:49:58",  4,  -61,  1005,  0,  0,  -1,  -11,  -26,  -35
967510, 1710334199, "2024/3/13 12:49:59",  4,  -59,  1000,  0,  -1,  -1,  -11,  -27,  -36
967710, 1710334199, "2024/3/13 12:49:59",  0,  -62,  1002,  0,  0,  -1,  -11,  -26,  -34
967910, 1710334199, "2024/3/13 12:49:59",  0,  -58,  1002,  0,  0,  0,  -11,  -25,  -34
968110, 1710334199, "2024/3/13 12:49:59",  1,  -53,  1006,  0,  0,  -1,  -9,  -26,  -35
968310, 1710334199, "2024/3/13 12:49:59",  7,  -58,  1001,  0,  0,  -1,  -10,  -24,  -34
968510, 1710334200, "2024/3/13 12:50:0",  6,  -58,  1000,  0,  0,  -1,  -9,  -26,  -34
968710, 1710334200, "2024/3/13 12:50:0",  2,  -58,  1007,  0,  0,  -1,  -10,  -26,  -34
968910, 1710334200, "2024/3/13 12:50:0",  9,  -58,  1003,  0,  0,  0,  -11,  -27,  -34
969110, 1710334200, "2024/3/13 12:50:0",  3,  -54,  1007,  0,  0,  -1,  -11,  -26,  -36
969310, 1710334200, "2024/3/13 12:50:0",  4,  -60,  1002,  0,  0,  -1,  -11,  -27,  -37
969510, 1710334201, "2024/3/13 12:50:1",  4,  -56,  1001,  0,  0,  0,  -11,  -25,  -35
969710, 1710334201, "2024/3/13 12:50:1",  2,  -56,  1002,  0,  0,  -1,  -12,  -26,  -35
969910, 1710334201, "2024/3/13 12:50:1",  2,  -57,  1007,  0,  0,  -1,  -10,  -26,  -35
970110, 1710334201, "2024/3/13 12:50:1",  3,  -54,  1006,  0,  0,  -1,  -10,  -26,  -36
970310, 1710334201, "2024/3/13 12:50:1",  9,  -53,  1004,  0,  0,  -1,  -11,  -27,  -34
970510, 1710334202, "2024/3/13 12:50:2",  4,  -60,  1003,  0,  0,  -1,  -11,  -25,  -35
970710, 1710334202, "2024/3/13 12:50:2",  8,  -59,  1004,  0,  0,  0,  -11,  -27,  -36
970910, 1710334202, "2024/3/13 12:50:2",  6,  -59,  1001,  0,  0,  0,  -9,  -27,  -35
971110, 1710334202, "2024/3/13 12:50:2",  6,  -56,  1000,  0,  0,  -1,  -11,  -25,  -37
971310, 1710334202, "2024/3/13 12:50:2",  3,  -52,  1006,  0,  0,  0,  -10,  -27,  -35
971510, 1710334203, "2024/3/13 12:50:3",  5,  -56,  1005,  0,  0,  0,  -11,  -25,  -33
971710, 1710334203, "2024/3/13 12:50:3",  7,  -52,  1005,  0,  0,  -1,  -11,  -25,  -35
971910, 1710334203, "2024/3/13 12:50:3",  -5,  -58,  997,  0,  -1,  -1,  -11,  -26,  -34
972110, 1710334203, "2024/3/13 12:50:3",  1,  -58,  1000,  0,  0,  -1,  -10,  -27,  -34
972310, 1710334203, "2024/3/13 12:50:3",  -3,  -60,  1003,  0,  0,  -1,  -11,  -28,  -34
972510, 1710334204, "2024/3/13 12:50:4",  -1,  -63,  1003,  0,  0,  0,  -11,  -26,  -34
972710, 1710334204, "2024/3/13 12:50:4",  1,  -56,  1006,  0,  0,  0,  -11,  -25,  -34
972910, 1710334204, "2024/3/13 12:50:4",  6,  -55,  1006,  0,  0,  -1,  -11,  -25,  -36
973110, 1710334204, "2024/3/13 12:50:4",  11,  -51,  1000,  0,  -1,  -1,  -11,  -26,  -35
973310, 1710334204, "2024/3/13 12:50:4",  15,  -70,  1002,  0,  0,  -1,  -10,  -27,  -35
973510, 1710334205, "2024/3/13 12:50:5",  8,  -61,  1004,  1,  0,  -1,  -12,  -27,  -34
973710, 1710334205, "2024/3/13 12:50:5",  9,  -56,  1007,  0,  0,  -1,  -11,  -25,  -35
973910, 1710334205, "2024/3/13 12:50:5",  4,  -56,  1002,  0,  0,  -1,  -11,  -27,  -36
974110, 1710334205, "2024/3/13 12:50:5",  8,  -57,  999,  0,  0,  -1,  -10,  -27,  -35
974310, 1710334205, "2024/3/13 12:50:5",  5,  -52,  1004,  0,  0,  -1,  -11,  -25,  -33
974510, 1710334206, "2024/3/13 12:50:6",  7,  -60,  1004,  0,  -1,  -1,  -11,  -27,  -35
974710, 1710334206, "2024/3/13 12:50:6",  5,  -62,  1001,  0,  0,  -1,  -11,  -27,  -35
974910, 1710334206, "2024/3/13 12:50:6",  3,  -60,  1002,  0,  -1,  -1,  -12,  -27,  -36
975110, 1710334206, "2024/3/13 12:50:6",  4,  -56,  1006,  0,  0,  -1,  -10,  -25,  -34
975310, 1710334206, "2024/3/13 12:50:6",  7,  -53,  1005,  0,  0,  -1,  -9,  -27,  -33
975510, 1710334207, "2024/3/13 12:50:7",  3,  -58,  1002,  0,  0,  -1,  -12,  -27,  -34
975710, 1710334207, "2024/3/13 12:50:7",  3,  -55,  1001,  0,  0,  0,  -11,  -26,  -36
975910, 1710334207, "2024/3/13 12:50:7",  2,  -61,  1003,  0,  0,  0,  -10,  -27,  -35
976110, 1710334207, "2024/3/13 12:50:7",  3,  -52,  1005,  0,  0,  -1,  -10,  -26,  -35
976310, 1710334207, "2024/3/13 12:50:7",  8,  -59,  1006,  0,  0,  -1,  -12,  -26,  -34
976510, 1710334208, "2024/3/13 12:50:8",  5,  -52,  1001,  0,  0,  -1,  -11,  -25,  -36
976710, 1710334208, "2024/3/13 12:50:8",  4,  -57,  1003,  0,  0,  -1,  -11,  -28,  -35
976910, 1710334208, "2024/3/13 12:50:8",  4,  -62,  1002,  0,  0,  -1,  -11,  -25,  -36
977110, 1710334208, "2024/3/13 12:50:8",  4,  -58,  1005,  0,  0,  0,  -11,  -26,  -35
977310, 1710334208, "2024/3/13 12:50:8",  7,  -55,  1004,  0,  0,  -1,  -11,  -26,  -37
977510, 1710334209, "2024/3/13 12:50:9",  4,  -54,  1002,  0,  -1,  -1,  -11,  -26,  -35
977710, 1710334209, "2024/3/13 12:50:9",  5,  -51,  1000,  0,  0,  -1,  -11,  -26,  -34
977910, 1710334209, "2024/3/13 12:50:9",  6,  -64,  1006,  0,  0,  0,  -11,  -25,  -35
978110, 1710334209, "2024/3/13 12:50:9",  9,  -59,  998,  0,  0,  -1,  -11,  -25,  -35
978310, 1710334209, "2024/3/13 12:50:9",  5,  -57,  1005,  0,  0,  -1,  -11,  -27,  -36
978510, 1710334210, "2024/3/13 12:50:10",  11,  -64,  1003,  0,  0,  0,  -11,  -25,  -34
978710, 1710334210, "2024/3/13 12:50:10",  4,  -51,  1007,  0,  -1,  -1,  -10,  -26,  -35
978910, 1710334210, "2024/3/13 12:50:10",  4,  -59,  1001,  0,  0,  -1,  -9,  -27,  -36
979110, 1710334210, "2024/3/13 12:50:10",  3,  -60,  1002,  0,  0,  0,  -10,  -26,  -35
979310, 1710334210, "2024/3/13 12:50:10",  1,  -59,  1003,  0,  0,  -1,  -11,  -27,  -35
979510, 1710334211, "2024/3/13 12:50:11",  5,  -62,  1004,  0,  0,  -1,  -12,  -26,  -35
979710, 1710334211, "2024/3/13 12:50:11",  -1,  -63,  1002,  0,  0,  -1,  -11,  -25,  -35
979910, 1710334211, "2024/3/13 12:50:11",  4,  -60,  1003,  0,  0,  0,  -8,  -26,  -35
980110, 1710334211, "2024/3/13 12:50:11",  3,  -56,  1010,  0,  0,  0,  -12,  -25,  -35
980310, 1710334211, "2024/3/13 12:50:11",  6,  -60,  1002,  0,  -1,  0,  -11,  -27,  -35
980510, 1710334212, "2024/3/13 12:50:12",  0,  -57,  1005,  0,  0,  -1,  -12,  -27,  -35
980710, 1710334212, "2024/3/13 12:50:12",  -2,  -60,  1001,  0,  0,  0,  -11,  -25,  -35
980910, 1710334212, "2024/3/13 12:50:12",  0,  -59,  1005,  0,  0,  0,  -11,  -24,  -34
981110, 1710334212, "2024/3/13 12:50:12",  2,  -57,  1004,  0,  0,  -1,  -11,  -26,  -34
981310, 1710334212, "2024/3/13 12:50:12",  2,  -57,  1002,  0,  0,  0,  -10,  -25,  -35
981510, 1710334213, "2024/3/13 12:50:13",  5,  -55,  1000,  0,  0,  -1,  -10,  -26,  -35
981710, 1710334213, "2024/3/13 12:50:13",  6,  -56,  1010,  0,  0,  -1,  -10,  -27,  -35
981910, 1710334213, "2024/3/13 12:50:13",  6,  -56,  1005,  0,  0,  -1,  -11,  -27,  -34
982110, 1710334213, "2024/3/13 12:50:13",  6,  -61,  999,  0,  0,  -1,  -12,  -27,  -34
982310, 1710334213, "2024/3/13 12:50:13",  4,  -53,  1004,  0,  0,  0,  -11,  -25,  -36
982510, 1710334214, "2024/3/13 12:50:14",  8,  -57,  1005,  0,  0,  0,  -10,  -25,  -34
982710, 1710334214, "2024/3/13 12:50:14",  4,  -53,  1006,  0,  0,  -1,  -11,  -27,  -34
982910, 1710334214, "2024/3/13 12:50:14",  5,  -58,  1007,  0,  0,  -1,  -11,  -27,  -34
983110, 1710334214, "2024/3/13 12:50:14",  1,  -57,  1006,  0,  0,  -1,  -10,  -27,  -34
983310, 1710334214, "2024/3/13 12:50:14",  3,  -59,  1005,  0,  0,  -1,  -10,  -27,  -35
983510, 1710334215, "2024/3/13 12:50:15",  4,  -59,  1004,  0,  0,  -1,  -13,  -27,  -34
983710, 1710334215, "2024/3/13 12:50:15",  6,  -61,  1003,  0,  0,  0,  -10,  -26,  -36
983910, 1710334215, "2024/3/13 12:50:15",  3,  -57,  1005,  0,  0,  -1,  -10,  -25,  -36
984110, 1710334215, "2024/3/13 12:50:15",  7,  -59,  1002,  0,  0,  -1,  -10,  -27,  -34
984310, 1710334215, "2024/3/13 12:50:15",  2,  -58,  1004,  0,  0,  0,  -10,  -26,  -36
984510, 1710334216, "2024/3/13 12:50:16",  6,  -64,  1003,  0,  0,  -1,  -12,  -26,  -34
984710, 1710334216, "2024/3/13 12:50:16",  1,  -63,  1005,  0,  0,  0,  -11,  -27,  -35
984910, 1710334216, "2024/3/13 12:50:16",  11,  -61,  1001,  0,  0,  0,  -10,  -25,  -35
985110, 1710334216, "2024/3/13 12:50:16",  6,  -57,  1003,  0,  0,  -1,  -9,  -24,  -36
985310, 1710334216, "2024/3/13 12:50:16",  5,  -63,  1001,  0,  0,  -1,  -10,  -26,  -33
985510, 1710334217, "2024/3/13 12:50:17",  1,  -59,  1007,  0,  -1,  -1,  -11,  -25,  -34
985710, 1710334217, "2024/3/13 12:50:17",  1,  -58,  1006,  1,  0,  -1,  -11,  -25,  -35
985910, 1710334217, "2024/3/13 12:50:17",  4,  -59,  1000,  0,  0,  -1,  -12,  -27,  -35
986110, 1710334217, "2024/3/13 12:50:17",  3,  -62,  1002,  0,  0,  -1,  -9,  -26,  -34
986310, 1710334217, "2024/3/13 12:50:17",  5,  -64,  1000,  0,  -1,  -1,  -10,  -27,  -34
986510, 1710334218, "2024/3/13 12:50:18",  2,  -57,  999,  0,  0,  -1,  -11,  -26,  -35
986710, 1710334218, "2024/3/13 12:50:18",  -1,  -60,  1001,  0,  -1,  0,  -12,  -25,  -34
986910, 1710334218, "2024/3/13 12:50:18",  5,  -56,  1001,  0,  0,  -1,  -11,  -26,  -35
987110, 1710334218, "2024/3/13 12:50:18",  0,  -62,  1001,  0,  0,  -1,  -10,  -26,  -35
987310, 1710334218, "2024/3/13 12:50:18",  5,  -60,  1006,  0,  0,  0,  -10,  -27,  -35
987510, 1710334219, "2024/3/13 12:50:19",  -1,  -57,  1005,  0,  0,  0,  -11,  -25,  -35
987710, 1710334219, "2024/3/13 12:50:19",  6,  -54,  1006,  0,  0,  -1,  -11,  -27,  -35
987910, 1710334219, "2024/3/13 12:50:19",  4,  -62,  1004,  0,  0,  -1,  -11,  -27,  -34
988110, 1710334219, "2024/3/13 12:50:19",  2,  -57,  1004,  0,  -1,  -1,  -10,  -24,  -35
988310, 1710334219, "2024/3/13 12:50:19",  4,  -58,  1001,  0,  0,  -1,  -10,  -26,  -35
988510, 1710334220, "2024/3/13 12:50:20",  1,  -58,  1004,  0,  0,  0,  -11,  -25,  -33
988710, 1710334220, "2024/3/13 12:50:20",  7,  -54,  1008,  0,  0,  0,  -10,  -25,  -34
988910, 1710334220, "2024/3/13 12:50:20",  0,  -61,  1004,  0,  -1,  0,  -9,  -26,  -36
989110, 1710334220, "2024/3/13 12:50:20",  0,  -57,  1010,  0,  0,  0,  -11,  -27,  -35
989310, 1710334220, "2024/3/13 12:50:20",  8,  -61,  1000,  0,  -1,  0,  -10,  -27,  -34
989510, 1710334221, "2024/3/13 12:50:21",  0,  -56,  1003,  0,  0,  -1,  -10,  -24,  -35
989710, 1710334221, "2024/3/13 12:50:21",  8,  -57,  1002,  0,  0,  0,  -12,  -27,  -37
989910, 1710334221, "2024/3/13 12:50:21",  1,  -56,  1004,  0,  0,  -1,  -11,  -25,  -36
990110, 1710334221, "2024/3/13 12:50:21",  7,  -56,  1006,  0,  0,  -1,  -12,  -26,  -34
990310, 1710334221, "2024/3/13 12:50:21",  9,  -60,  1004,  0,  0,  -1,  -9,  -25,  -34
990510, 1710334222, "2024/3/13 12:50:22",  6,  -55,  1004,  0,  -1,  0,  -10,  -26,  -35
990710, 1710334222, "2024/3/13 12:50:22",  2,  -58,  1002,  0,  0,  0,  -12,  -25,  -33
990910, 1710334222, "2024/3/13 12:50:22",  6,  -60,  1005,  0,  0,  0,  -9,  -25,  -36
991110, 1710334222, "2024/3/13 12:50:22",  2,  -56,  1005,  0,  0,  -1,  -10,  -26,  -34
991310, 1710334222, "2024/3/13 12:50:22",  5,  -59,  1006,  0,  0,  0,  -10,  -25,  -35
991510, 1710334223, "2024/3/13 12:50:23",  3,  -60,  1003,  0,  0,  -1,  -11,  -25,  -33
991710, 1710334223, "2024/3/13 12:50:23",  3,  -58,  1003,  0,  0,  0,  -10,  -26,  -33
991910, 1710334223, "2024/3/13 12:50:23",  0,  -61,  1002,  0,  -1,  -1,  -12,  -26,  -36
992110, 1710334223, "2024/3/13 12:50:23",  3,  -61,  1003,  0,  0,  -1,  -10,  -27,  -34
992310, 1710334223, "2024/3/13 12:50:23",  4,  -59,  1003,  0,  0,  0,  -10,  -26,  -35
992510, 1710334224, "2024/3/13 12:50:24",  2,  -59,  1004,  0,  0,  -1,  -10,  -26,  -34
992710, 1710334224, "2024/3/13 12:50:24",  9,  -53,  1008,  0,  0,  0,  -11,  -26,  -34
992910, 1710334224, "2024/3/13 12:50:24",  5,  -62,  1003,  0,  0,  0,  -11,  -26,  -35
993110, 1710334224, "2024/3/13 12:50:24",  4,  -59,  1007,  0,  0,  -1,  -11,  -27,  -34
993310, 1710334224, "2024/3/13 12:50:24",  8,  -52,  1004,  0,  0,  -1,  -10,  -27,  -34
993510, 1710334225, "2024/3/13 12:50:25",  7,  -57,  1003,  0,  0,  -1,  -10,  -26,  -34
993710, 1710334225, "2024/3/13 12:50:25",  5,  -61,  1002,  0,  0,  -1,  -11,  -27,  -33
993910, 1710334225, "2024/3/13 12:50:25",  3,  -58,  1004,  1,  0,  -1,  -12,  -27,  -35
994110, 1710334225, "2024/3/13 12:50:25",  3,  -58,  1003,  0,  0,  0,  -11,  -27,  -33
994310, 1710334225, "2024/3/13 12:50:25",  3,  -57,  1003,  0,  0,  -1,  -10,  -26,  -34
994510, 1710334226, "2024/3/13 12:50:26",  4,  -65,  1004,  0,  0,  0,  -11,  -25,  -35
994710, 1710334226, "2024/3/13 12:50:26",  2,  -60,  999,  0,  -1,  -1,  -12,  -26,  -35
994910, 1710334226, "2024/3/13 12:50:26",  4,  -56,  1005,  0,  0,  -1,  -10,  -26,  -33
995110, 1710334226, "2024/3/13 12:50:26",  4,  -55,  1005,  0,  0,  -1,  -12,  -25,  -35
995310, 1710334226, "2024/3/13 12:50:26",  5,  -60,  1002,  0,  0,  -1,  -11,  -26,  -35
995510, 1710334227, "2024/3/13 12:50:27",  4,  -54,  1004,  0,  0,  0,  -12,  -25,  -35
995710, 1710334227, "2024/3/13 12:50:27",  5,  -54,  1003,  0,  -1,  -1,  -12,  -26,  -34
995910, 1710334227, "2024/3/13 12:50:27",  9,  -63,  1005,  0,  -1,  -1,  -10,  -25,  -34
996110, 1710334227, "2024/3/13 12:50:27",  5,  -55,  1005,  0,  0,  0,  -11,  -27,  -34
996310, 1710334227, "2024/3/13 12:50:27",  3,  -59,  1001,  0,  0,  -1,  -11,  -26,  -34
996510, 1710334228, "2024/3/13 12:50:28",  4,  -56,  1005,  0,  0,  -1,  -12,  -25,  -35
996710, 1710334228, "2024/3/13 12:50:28",  0,  -53,  1005,  0,  0,  -1,  -11,  -24,  -35
996910, 1710334228, "2024/3/13 12:50:28",  3,  -57,  1004,  0,  0,  -1,  -11,  -26,  -35
997110, 1710334228, "2024/3/13 12:50:28",  1,  -56,  1004,  0,  0,  0,  -9,  -26,  -35
997310, 1710334228, "2024/3/13 12:50:28",  3,  -54,  1004,  0,  0,  0,  -10,  -26,  -34
997510, 1710334229, "2024/3/13 12:50:29",  3,  -57,  1005,  0,  0,  -1,  -9,  -27,  -37
997710, 1710334229, "2024/3/13 12:50:29",  8,  -61,  1005,  0,  0,  -1,  -10,  -25,  -34
997910, 1710334229, "2024/3/13 12:50:29",  0,  -59,  1001,  0,  0,  0,  -11,  -26,  -34
998110, 1710334229, "2024/3/13 12:50:29",  3,  -56,  1002,  0,  0,  0,  -10,  -25,  -36
998310, 1710334229, "2024/3/13 12:50:29",  0,  -52,  1003,  0,  0,  -1,  -12,  -27,  -35
998510, 1710334230, "2024/3/13 12:50:30",  4,  -58,  1002,  0,  0,  0,  -11,  -27,  -35
998710, 1710334230, "2024/3/13 12:50:30",  3,  -62,  1002,  0,  0,  0,  -11,  -27,  -34
998910, 1710334230, "2024/3/13 12:50:30",  6,  -59,  1004,  0,  0,  -1,  -11,  -27,  -34
999110, 1710334230, "2024/3/13 12:50:30",  2,  -61,  1005,  0,  0,  -1,  -10,  -27,  -34
999310, 1710334230, "2024/3/13 12:50:30",  6,  -60,  1003,  0,  -1,  -1,  -10,  -27,  -33
999510, 1710334231, "2024/3/13 12:50:31",  5,  -53,  1001,  0,  0,  0,  -11,  -27,  -34
999710, 1710334231, "2024/3/13 12:50:31",  5,  -58,  1001,  0,  0,  -1,  -10,  -27,  -34
999910, 1710334231, "2024/3/13 12:50:31",  4,  -61,  1003,  0,  0,  -1,  -10,  -26,  -34
1000110, 1710334231, "2024/3/13 12:50:31",  3,  -61,  1004,  0,  -1,  -1,  -12,  -26,  -35
1000310, 1710334231, "2024/3/13 12:50:31",  2,  -60,  1006,  0,  -1,  -1,  -11,  -25,  -34
1000510, 1710334232, "2024/3/13 12:50:32",  4,  -65,  1000,  0,  0,  -1,  -10,  -27,  -34
1000710, 1710334232, "2024/3/13 12:50:32",  5,  -62,  1006,  0,  0,  -1,  -12,  -26,  -36
1000910, 1710334232, "2024/3/13 12:50:32",  6,  -58,  1003,  0,  0,  -1,  -10,  -25,  -33
1001110, 1710334232, "2024/3/13 12:50:32",  3,  -58,  1003,  0,  0,  -1,  -11,  -26,  -34
1001310, 1710334232, "2024/3/13 12:50:32",  1,  -56,  1003,  0,  -1,  -1,  -12,  -26,  -33
1001510, 1710334233, "2024/3/13 12:50:33",  8,  -62,  1006,  0,  -1,  -1,  -11,  -25,  -34
1001710, 1710334233, "2024/3/13 12:50:33",  6,  -56,  1004,  0,  0,  0,  -10,  -27,  -34
1001910, 1710334233, "2024/3/13 12:50:33",  3,  -59,  1004,  0,  0,  0,  -9,  -26,  -35
1002110, 1710334233, "2024/3/13 12:50:33",  1,  -62,  1004,  0,  0,  -1,  -11,  -27,  -35
1002310, 1710334233, "2024/3/13 12:50:33",  4,  -55,  1004,  0,  0,  0,  -10,  -26,  -35
1002510, 1710334234, "2024/3/13 12:50:34",  3,  -55,  996,  0,  0,  0,  -10,  -25,  -35
1002710, 1710334234, "2024/3/13 12:50:34",  6,  -57,  1003,  0,  -1,  -1,  -9,  -26,  -34
1002910, 1710334234, "2024/3/13 12:50:34",  2,  -64,  1005,  0,  0,  -1,  -9,  -26,  -35
1003110, 1710334234, "2024/3/13 12:50:34",  3,  -59,  1006,  0,  0,  -1,  -11,  -26,  -33
1003310, 1710334234, "2024/3/13 12:50:34",  4,  -58,  1002,  0,  0,  -1,  -11,  -26,  -33
1003510, 1710334235, "2024/3/13 12:50:35",  2,  -55,  1003,  0,  0,  -1,  -11,  -26,  -34
1003710, 1710334235, "2024/3/13 12:50:35",  2,  -60,  1006,  0,  0,  -1,  -11,  -27,  -35
1003910, 1710334235, "2024/3/13 12:50:35",  0,  -56,  1000,  0,  0,  -1,  -10,  -25,  -36
1004110, 1710334235, "2024/3/13 12:50:35",  5,  -56,  1006,  0,  0,  -1,  -10,  -27,  -35
1004310, 1710334235, "2024/3/13 12:50:35",  1,  -58,  1004,  0,  -1,  -1,  -11,  -26,  -35
1004510, 1710334236, "2024/3/13 12:50:36",  8,  -58,  1002,  0,  0,  -1,  -12,  -27,  -35
1004710, 1710334236, "2024/3/13 12:50:36",  9,  -55,  1001,  0,  0,  -1,  -12,  -27,  -34
1004910, 1710334236, "2024/3/13 12:50:36",  1,  -55,  1003,  0,  0,  -1,  -10,  -27,  -33
1005110, 1710334236, "2024/3/13 12:50:36",  3,  -63,  1002,  0,  0,  -1,  -10,  -27,  -34
1005310, 1710334236, "2024/3/13 12:50:36",  7,  -59,  1006,  0,  -1,  -1,  -11,  -26,  -35
1005510, 1710334237, "2024/3/13 12:50:37",  1,  -53,  1007,  0,  0,  -1,  -11,  -26,  -33
1005710, 1710334237, "2024/3/13 12:50:37",  -1,  -53,  1001,  0,  -1,  -1,  -9,  -25,  -34
1005910, 1710334237, "2024/3/13 12:50:37",  6,  -58,  1001,  0,  0,  -1,  -11,  -26,  -35
1006110, 1710334237, "2024/3/13 12:50:37",  2,  -54,  1008,  0,  0,  -1,  -12,  -27,  -34
1006310, 1710334237, "2024/3/13 12:50:37",  3,  -58,  1000,  0,  0,  0,  -10,  -27,  -34
1006510, 1710334238, "2024/3/13 12:50:38",  4,  -53,  1005,  0,  0,  0,  -12,  -25,  -35
1006710, 1710334238, "2024/3/13 12:50:38",  4,  -58,  1000,  0,  0,  -1,  -11,  -27,  -34
1006910, 1710334238, "2024/3/13 12:50:38",  3,  -54,  1007,  0,  0,  -1,  -12,  -26,  -36
1007110, 1710334238, "2024/3/13 12:50:38",  4,  -57,  1003,  0,  0,  -1,  -10,  -27,  -36
1007310, 1710334238, "2024/3/13 12:50:38",  5,  -64,  1004,  0,  0,  -1,  -11,  -26,  -36
1007510, 1710334239, "2024/3/13 12:50:39",  9,  -58,  996,  0,  0,  0,  -11,  -24,  -34
1007710, 1710334239, "2024/3/13 12:50:39",  3,  -57,  1005,  0,  0,  -1,  -11,  -26,  -34
1007910, 1710334239, "2024/3/13 12:50:39",  5,  -60,  1004,  0,  0,  -1,  -11,  -27,  -34
1008110, 1710334239, "2024/3/13 12:50:39",  6,  -54,  1004,  0,  0,  -1,  -12,  -27,  -35
1008310, 1710334239, "2024/3/13 12:50:39",  4,  -54,  1005,  0,  0,  -1,  -11,  -28,  -34
1008510, 1710334240, "2024/3/13 12:50:40",  8,  -63,  1004,  0,  0,  0,  -12,  -26,  -35
1008710, 1710334240, "2024/3/13 12:50:40",  4,  -61,  1003,  0,  0,  -1,  -11,  -27,  -34
1008910, 1710334240, "2024/3/13 12:50:40",  3,  -55,  1002,  0,  0,  0,  -9,  -26,  -35
1009110, 1710334240, "2024/3/13 12:50:40",  8,  -53,  1003,  0,  -1,  0,  -11,  -27,  -34
1009310, 1710334240, "2024/3/13 12:50:40",  2,  -52,  1004,  0,  -1,  0,  -11,  -26,  -36
1009510, 1710334241, "2024/3/13 12:50:41",  7,  -60,  1005,  0,  0,  -1,  -12,  -26,  -33
1009710, 1710334241, "2024/3/13 12:50:41",  4,  -59,  1002,  0,  0,  -1,  -9,  -27,  -34
1009910, 1710334241, "2024/3/13 12:50:41",  3,  -54,  1006,  0,  0,  0,  -9,  -24,  -34
1010110, 1710334241, "2024/3/13 12:50:41",  3,  -58,  1001,  0,  0,  -1,  -11,  -26,  -34
1010310, 1710334241, "2024/3/13 12:50:41",  1,  -56,  1005,  0,  -1,  -1,  -10,  -27,  -36
1010510, 1710334242, "2024/3/13 12:50:42",  3,  -54,  1002,  0,  0,  0,  -11,  -25,  -36
1010710, 1710334242, "2024/3/13 12:50:42",  2,  -59,  1003,  0,  0,  0,  -9,  -25,  -35
1010910, 1710334242, "2024/3/13 12:50:42",  2,  -59,  1004,  0,  0,  -1,  -10,  -27,  -34
1011110, 1710334242, "2024/3/13 12:50:42",  6,  -56,  1006,  0,  0,  -1,  -12,  -28,  -35
1011310, 1710334242, "2024/3/13 12:50:42",  3,  -56,  1008,  0,  0,  0,  -12,  -27,  -34
1011510, 1710334243, "2024/3/13 12:50:43",  6,  -62,  1006,  0,  0,  -1,  -12,  -27,  -34
1011710, 1710334243, "2024/3/13 12:50:43",  2,  -54,  1005,  0,  0,  0,  -10,  -26,  -35
1011910, 1710334243, "2024/3/13 12:50:43",  10,  -57,  1002,  0,  -1,  -1,  -11,  -27,  -33
1012110, 1710334243, "2024/3/13 12:50:43",  5,  -58,  1001,  0,  0,  0,  -12,  -26,  -34
1012310, 1710334243, "2024/3/13 12:50:43",  4,  -60,  1003,  0,  0,  -1,  -11,  -27,  -35
1012510, 1710334244, "2024/3/13 12:50:44",  1,  -58,  1003,  0,  0,  -1,  -10,  -27,  -35
1012710, 1710334244, "2024/3/13 12:50:44",  5,  -58,  1002,  0,  -1,  -1,  -12,  -26,  -34
1012910, 1710334244, "2024/3/13 12:50:44",  3,  -59,  1002,  0,  0,  -1,  -11,  -26,  -34
1013110, 1710334244, "2024/3/13 12:50:44",  4,  -57,  1002,  0,  0,  -1,  -12,  -26,  -36
1013310, 1710334244, "2024/3/13 12:50:44",  4,  -58,  1005,  0,  -1,  -1,  -12,  -27,  -35
1013510, 1710334245, "2024/3/13 12:50:45",  9,  -57,  1005,  0,  0,  -1,  -12,  -26,  -35
1013710, 1710334245, "2024/3/13 12:50:45",  3,  -60,  1001,  0,  0,  -1,  -10,  -25,  -35
1013910, 1710334245, "2024/3/13 12:50:45",  0,  -56,  1004,  0,  0,  0,  -12,  -26,  -33
1014110, 1710334245, "2024/3/13 12:50:45",  4,  -59,  1004,  0,  0,  -1,  -9,  -25,  -35
1014310, 1710334245, "2024/3/13 12:50:45",  5,  -56,  1004,  0,  0,  -1,  -12,  -25,  -34
1014510, 1710334246, "2024/3/13 12:50:46",  0,  -61,  1004,  0,  0,  -1,  -11,  -25,  -36
1014710, 1710334246, "2024/3/13 12:50:46",  4,  -61,  1007,  0,  0,  -1,  -11,  -26,  -34
1014910, 1710334246, "2024/3/13 12:50:46",  1,  -57,  1004,  0,  0,  0,  -11,  -27,  -35
1015110, 1710334246, "2024/3/13 12:50:46",  6,  -55,  1005,  0,  0,  -1,  -12,  -25,  -34
1015310, 1710334246, "2024/3/13 12:50:46",  2,  -55,  1005,  0,  0,  0,  -11,  -26,  -34
1015510, 1710334247, "2024/3/13 12:50:47",  6,  -53,  1004,  0,  0,  -1,  -10,  -26,  -34
1015710, 1710334247, "2024/3/13 12:50:47",  5,  -56,  1002,  0,  0,  0,  -10,  -26,  -34
1015910, 1710334247, "2024/3/13 12:50:47",  14,  -52,  1009,  0,  0,  0,  -11,  -26,  -34
1016110, 1710334247, "2024/3/13 12:50:47",  11,  -55,  1009,  0,  0,  -1,  -10,  -25,  -34
1016310, 1710334247, "2024/3/13 12:50:47",  7,  -60,  1004,  0,  0,  -1,  -11,  -26,  -34
1016510, 1710334248, "2024/3/13 12:50:48",  6,  -61,  1006,  0,  0,  -1,  -11,  -26,  -34
1016710, 1710334248, "2024/3/13 12:50:48",  1,  -55,  1001,  0,  0,  0,  -10,  -25,  -34
1016910, 1710334248, "2024/3/13 12:50:48",  3,  -59,  1004,  0,  0,  -1,  -9,  -26,  -35
1017110, 1710334248, "2024/3/13 12:50:48",  2,  -57,  1002,  0,  0,  0,  -10,  -28,  -36
1017310, 1710334248, "2024/3/13 12:50:48",  3,  -62,  1002,  0,  0,  -1,  -10,  -25,  -34
1017510, 1710334249, "2024/3/13 12:50:49",  5,  -58,  1006,  0,  -1,  -1,  -12,  -26,  -34
1017710, 1710334249, "2024/3/13 12:50:49",  4,  -60,  1007,  0,  0,  -1,  -11,  -25,  -36
1017910, 1710334249, "2024/3/13 12:50:49",  3,  -57,  1005,  0,  0,  -1,  -12,  -26,  -36
1018110, 1710334249, "2024/3/13 12:50:49",  3,  -56,  1004,  0,  0,  -1,  -10,  -27,  -34
1018310, 1710334249, "2024/3/13 12:50:49",  0,  -59,  1003,  0,  0,  -1,  -10,  -27,  -34
1018510, 1710334250, "2024/3/13 12:50:50",  5,  -59,  1007,  0,  0,  -1,  -10,  -26,  -34
1018710, 1710334250, "2024/3/13 12:50:50",  3,  -59,  1004,  0,  0,  -1,  -10,  -27,  -35
1018910, 1710334250, "2024/3/13 12:50:50",  6,  -53,  1004,  0,  0,  0,  -11,  -27,  -35
1019110, 1710334250, "2024/3/13 12:50:50",  6,  -61,  1002,  0,  -1,  0,  -10,  -25,  -34
1019310, 1710334250, "2024/3/13 12:50:50",  5,  -59,  1000,  0,  0,  -1,  -11,  -27,  -35
1019510, 1710334251, "2024/3/13 12:50:51",  3,  -50,  1004,  0,  0,  0,  -10,  -27,  -34
1019710, 1710334251, "2024/3/13 12:50:51",  4,  -55,  1003,  0,  0,  -1,  -13,  -26,  -35
1019910, 1710334251, "2024/3/13 12:50:51",  6,  -51,  1003,  0,  0,  0,  -11,  -28,  -34
1020110, 1710334251, "2024/3/13 12:50:51",  5,  -58,  1001,  0,  0,  -1,  -12,  -27,  -35
1020310, 1710334251, "2024/3/13 12:50:51",  4,  -53,  1000,  0,  0,  -1,  -12,  -26,  -35
1020510, 1710334252, "2024/3/13 12:50:52",  0,  -58,  1003,  0,  0,  -1,  -10,  -25,  -34
1020710, 1710334252, "2024/3/13 12:50:52",  7,  -54,  1002,  0,  0,  0,  -10,  -23,  -34
1020910, 1710334252, "2024/3/13 12:50:52",  6,  -57,  1000,  0,  0,  -1,  -10,  -27,  -34
1021110, 1710334252, "2024/3/13 12:50:52",  7,  -55,  1004,  0,  0,  -1,  -12,  -25,  -34
1021310, 1710334252, "2024/3/13 12:50:52",  4,  -60,  1005,  0,  0,  -1,  -11,  -27,  -34
1021510, 1710334253, "2024/3/13 12:50:53",  7,  -59,  1002,  0,  0,  0,  -13,  -26,  -35
1021710, 1710334253, "2024/3/13 12:50:53",  8,  -64,  1003,  0,  0,  -1,  -11,  -26,  -34
1021910, 1710334253, "2024/3/13 12:50:53",  6,  -51,  1005,  0,  0,  -1,  -11,  -27,  -34
1022110, 1710334253, "2024/3/13 12:50:53",  5,  -59,  1004,  0,  0,  -1,  -11,  -24,  -32
1022310, 1710334253, "2024/3/13 12:50:53",  6,  -56,  1000,  0,  -1,  -1,  -11,  -26,  -34
1022510, 1710334254, "2024/3/13 12:50:54",  4,  -54,  1001,  0,  0,  -1,  -9,  -25,  -34
1022710, 1710334254, "2024/3/13 12:50:54",  2,  -56,  1004,  0,  0,  0,  -11,  -28,  -36
1022910, 1710334254, "2024/3/13 12:50:54",  2,  -56,  1003,  0,  0,  -1,  -12,  -28,  -36
1023110, 1710334254, "2024/3/13 12:50:54",  6,  -53,  1003,  0,  -1,  -1,  -10,  -27,  -34
1023310, 1710334254, "2024/3/13 12:50:54",  7,  -63,  1000,  0,  0,  -1,  -11,  -27,  -35
1023510, 1710334255, "2024/3/13 12:50:55",  4,  -64,  1004,  0,  0,  0,  -11,  -27,  -33
1023710, 1710334255, "2024/3/13 12:50:55",  6,  -59,  1005,  0,  0,  -1,  -10,  -26,  -36
1023910, 1710334255, "2024/3/13 12:50:55",  2,  -60,  1001,  0,  0,  -1,  -11,  -25,  -34
1024110, 1710334255, "2024/3/13 12:50:55",  8,  -55,  1004,  0,  0,  0,  -11,  -27,  -33
1024310, 1710334255, "2024/3/13 12:50:55",  4,  -63,  1005,  0,  0,  -1,  -11,  -25,  -34
1024510, 1710334256, "2024/3/13 12:50:56",  0,  -64,  997,  0,  0,  -1,  -10,  -27,  -34
1024710, 1710334256, "2024/3/13 12:50:56",  4,  -54,  1005,  0,  0,  -1,  -9,  -26,  -33
1024910, 1710334256, "2024/3/13 12:50:56",  -3,  -61,  998,  0,  0,  -1,  -11,  -26,  -34
1025110, 1710334256, "2024/3/13 12:50:56",  8,  -64,  1003,  0,  0,  -1,  -10,  -28,  -34
1025310, 1710334256, "2024/3/13 12:50:56",  6,  -56,  1002,  0,  0,  0,  -11,  -27,  -34
1025510, 1710334257, "2024/3/13 12:50:57",  -1,  -58,  1004,  0,  -1,  -1,  -11,  -27,  -33
1025710, 1710334257, "2024/3/13 12:50:57",  3,  -57,  1006,  0,  0,  -1,  -9,  -27,  -33
1025910, 1710334257, "2024/3/13 12:50:57",  6,  -61,  1004,  0,  0,  -1,  -11,  -27,  -34
1026110, 1710334257, "2024/3/13 12:50:57",  3,  -61,  1005,  0,  0,  -1,  -11,  -26,  -34
1026310, 1710334257, "2024/3/13 12:50:57",  -2,  -63,  999,  0,  0,  -1,  -11,  -25,  -33
1026510, 1710334258, "2024/3/13 12:50:58",  0,  -58,  1004,  0,  -1,  -1,  -10,  -26,  -33
1026710, 1710334258, "2024/3/13 12:50:58",  5,  -60,  1003,  0,  0,  0,  -10,  -26,  -35
1026910, 1710334258, "2024/3/13 12:50:58",  5,  -57,  1006,  0,  0,  -1,  -11,  -26,  -32
1027110, 1710334258, "2024/3/13 12:50:58",  3,  -59,  999,  0,  0,  -1,  -10,  -26,  -34
1027310, 1710334258, "2024/3/13 12:50:58",  0,  -53,  1001,  0,  0,  0,  -10,  -28,  -35
1027510, 1710334259, "2024/3/13 12:50:59",  6,  -60,  999,  0,  0,  -1,  -12,  -26,  -34
1027710, 1710334259, "2024/3/13 12:50:59",  4,  -60,  1002,  0,  0,  -1,  -11,  -26,  -34
1027910, 1710334259, "2024/3/13 12:50:59",  2,  -59,  1000,  0,  -1,  -1,  -10,  -27,  -35
1028110, 1710334259, "2024/3/13 12:50:59",  2,  -55,  1001,  0,  0,  0,  -11,  -24,  -36
1028310, 1710334259, "2024/3/13 12:50:59",  1,  -59,  1001,  0,  0,  -1,  -10,  -25,  -35
1028510, 1710334260, "2024/3/13 12:51:0",  3,  -54,  1003,  0,  -1,  -1,  -11,  -27,  -35
1028710, 1710334260, "2024/3/13 12:51:0",  7,  -50,  1007,  0,  0,  -1,  -11,  -25,  -35
1028910, 1710334260, "2024/3/13 12:51:0",  4,  -54,  1006,  0,  -1,  0,  -10,  -26,  -34
1029110, 1710334260, "2024/3/13 12:51:0",  3,  -57,  1005,  0,  0,  0,  -11,  -26,  -34
1029310, 1710334260, "2024/3/13 12:51:0",  7,  -63,  1002,  0,  0,  0,  -11,  -25,  -34
1029510, 1710334261, "2024/3/13 12:51:1",  2,  -58,  1001,  0,  0,  -1,  -11,  -26,  -34
1029710, 1710334261, "2024/3/13 12:51:1",  3,  -57,  1006,  0,  -1,  -1,  -10,  -26,  -35
1029910, 1710334261, "2024/3/13 12:51:1",  3,  -64,  1007,  0,  0,  -1,  -12,  -25,  -37
1030110, 1710334261, "2024/3/13 12:51:1",  6,  -61,  1003,  0,  0,  -1,  -10,  -25,  -35
1030310, 1710334261, "2024/3/13 12:51:1",  5,  -61,  1002,  0,  0,  -1,  -10,  -26,  -35
1030510, 1710334262, "2024/3/13 12:51:2",  3,  -59,  1005,  0,  0,  -1,  -10,  -26,  -35
1030710, 1710334262, "2024/3/13 12:51:2",  6,  -61,  1003,  0,  0,  -1,  -10,  -26,  -34
1030910, 1710334262, "2024/3/13 12:51:2",  3,  -58,  1002,  0,  0,  -1,  -11,  -25,  -35
1031110, 1710334262, "2024/3/13 12:51:2",  7,  -63,  1000,  0,  0,  0,  -10,  -25,  -32
1031310, 1710334262, "2024/3/13 12:51:2",  7,  -60,  1000,  0,  -1,  -1,  -11,  -26,  -34
1031510, 1710334263, "2024/3/13 12:51:3",  0,  -56,  1004,  0,  0,  0,  -11,  -26,  -34
1031710, 1710334263, "2024/3/13 12:51:3",  1,  -57,  1004,  0,  0,  0,  -10,  -26,  -34
1031910, 1710334263, "2024/3/13 12:51:3",  2,  -59,  1004,  0,  0,  -1,  -11,  -26,  -34
1032110, 1710334263, "2024/3/13 12:51:3",  8,  -56,  1004,  0,  -1,  -1,  -9,  -27,  -36
1032310, 1710334263, "2024/3/13 12:51:3",  11,  -57,  1004,  0,  0,  -1,  -11,  -25,  -34
1032510, 1710334264, "2024/3/13 12:51:4",  11,  -55,  1004,  0,  0,  -1,  -12,  -25,  -34
1032710, 1710334264, "2024/3/13 12:51:4",  8,  -56,  1005,  0,  0,  -1,  -10,  -27,  -33
1032910, 1710334264, "2024/3/13 12:51:4",  5,  -60,  1000,  0,  0,  -1,  -11,  -27,  -33
1033110, 1710334264, "2024/3/13 12:51:4",  3,  -63,  1001,  0,  0,  0,  -9,  -26,  -33
1033310, 1710334264, "2024/3/13 12:51:4",  7,  -55,  1007,  0,  0,  -1,  -10,  -27,  -34
1033510, 1710334265, "2024/3/13 12:51:5",  3,  -61,  1005,  0,  0,  -1,  -12,  -27,  -33
1033710, 1710334265, "2024/3/13 12:51:5",  4,  -58,  1005,  0,  0,  -1,  -11,  -26,  -34
1033910, 1710334265, "2024/3/13 12:51:5",  3,  -57,  1005,  0,  0,  0,  -10,  -26,  -36
1034110, 1710334265, "2024/3/13 12:51:5",  0,  -57,  1000,  0,  0,  -1,  -11,  -27,  -33
1034310, 1710334265, "2024/3/13 12:51:5",  5,  -60,  1005,  0,  0,  0,  -10,  -26,  -34
1034510, 1710334266, "2024/3/13 12:51:6",  4,  -51,  1006,  0,  0,  -1,  -10,  -26,  -34
1034710, 1710334266, "2024/3/13 12:51:6",  5,  -61,  1005,  0,  0,  -1,  -10,  -25,  -33
1034910, 1710334266, "2024/3/13 12:51:6",  3,  -60,  1006,  0,  0,  -1,  -12,  -26,  -32
1035110, 1710334266, "2024/3/13 12:51:6",  1,  -54,  1006,  0,  0,  -1,  -11,  -27,  -33
1035310, 1710334266, "2024/3/13 12:51:6",  4,  -55,  1004,  0,  0,  -1,  -11,  -27,  -34
1035510, 1710334267, "2024/3/13 12:51:7",  3,  -62,  1001,  0,  -1,  -1,  -10,  -26,  -34
1035710, 1710334267, "2024/3/13 12:51:7",  4,  -54,  1009,  0,  -1,  0,  -11,  -25,  -35
1035910, 1710334267, "2024/3/13 12:51:7",  2,  -58,  1008,  0,  0,  -1,  -11,  -28,  -33
1036110, 1710334267, "2024/3/13 12:51:7",  8,  -62,  1003,  0,  0,  -1,  -10,  -26,  -33
1036310, 1710334267, "2024/3/13 12:51:7",  6,  -57,  1007,  0,  0,  -1,  -12,  -27,  -34
1036510, 1710334268, "2024/3/13 12:51:8",  7,  -54,  1007,  0,  0,  0,  -11,  -27,  -35
1036710, 1710334268, "2024/3/13 12:51:8",  4,  -58,  1002,  0,  0,  -1,  -11,  -26,  -34
1036910, 1710334268, "2024/3/13 12:51:8",  0,  -61,  1001,  0,  0,  -1,  -10,  -27,  -32
1037110, 1710334268, "2024/3/13 12:51:8",  9,  -57,  1008,  0,  0,  0,  -12,  -26,  -35
1037310, 1710334268, "2024/3/13 12:51:8",  10,  -56,  1002,  0,  0,  -1,  -10,  -27,  -34
1037510, 1710334269, "2024/3/13 12:51:9",  9,  -55,  1004,  0,  -1,  -1,  -10,  -27,  -35
1037710, 1710334269, "2024/3/13 12:51:9",  8,  -56,  1007,  0,  0,  -1,  -10,  -26,  -33
1037910, 1710334269, "2024/3/13 12:51:9",  9,  -53,  1005,  0,  0,  -1,  -10,  -26,  -34
1038110, 1710334269, "2024/3/13 12:51:9",  -1,  -56,  1001,  0,  -1,  -1,  -12,  -27,  -34
1038310, 1710334269, "2024/3/13 12:51:9",  4,  -58,  1004,  0,  0,  -1,  -11,  -25,  -32
1038510, 1710334270, "2024/3/13 12:51:10",  3,  -60,  1002,  0,  0,  -1,  -9,  -27,  -34
1038710, 1710334270, "2024/3/13 12:51:10",  5,  -54,  1003,  0,  0,  0,  -11,  -27,  -32
1038910, 1710334270, "2024/3/13 12:51:10",  5,  -54,  1005,  0,  0,  0,  -11,  -27,  -33
1039110, 1710334270, "2024/3/13 12:51:10",  4,  -62,  1002,  0,  0,  0,  -11,  -26,  -35
1039310, 1710334270, "2024/3/13 12:51:10",  6,  -53,  1000,  0,  0,  0,  -11,  -27,  -34
1039510, 1710334271, "2024/3/13 12:51:11",  5,  -56,  1007,  0,  0,  0,  -11,  -26,  -33
1039710, 1710334271, "2024/3/13 12:51:11",  2,  -57,  1003,  0,  -1,  -1,  -10,  -29,  -34
1039910, 1710334271, "2024/3/13 12:51:11",  1,  -66,  1003,  0,  0,  0,  -10,  -25,  -33
1040110, 1710334271, "2024/3/13 12:51:11",  2,  -55,  1004,  0,  0,  -1,  -11,  -27,  -34
1040310, 1710334271, "2024/3/13 12:51:11",  9,  -61,  1004,  0,  0,  -1,  -10,  -27,  -33
1040510, 1710334272, "2024/3/13 12:51:12",  1,  -54,  1003,  0,  0,  0,  -11,  -26,  -33
1040710, 1710334272, "2024/3/13 12:51:12",  6,  -57,  1003,  0,  0,  -1,  -11,  -28,  -33
1040910, 1710334272, "2024/3/13 12:51:12",  3,  -54,  1003,  0,  0,  0,  -9,  -26,  -34
1041110, 1710334272, "2024/3/13 12:51:12",  -2,  -64,  990,  0,  0,  -1,  -10,  -26,  -34
1041310, 1710334272, "2024/3/13 12:51:12",  7,  -59,  999,  0,  -1,  0,  -11,  -26,  -34
1041510, 1710334273, "2024/3/13 12:51:13",  2,  -59,  1006,  0,  0,  0,  -10,  -25,  -34
1041710, 1710334273, "2024/3/13 12:51:13",  5,  -55,  1003,  0,  -1,  -1,  -11,  -25,  -33
1041910, 1710334273, "2024/3/13 12:51:13",  7,  -58,  1006,  0,  0,  0,  -10,  -25,  -34
1042110, 1710334273, "2024/3/13 12:51:13",  8,  -61,  1004,  0,  0,  -1,  -11,  -27,  -33
1042310, 1710334273, "2024/3/13 12:51:13",  2,  -55,  1005,  0,  0,  -1,  -10,  -26,  -34
1042510, 1710334274, "2024/3/13 12:51:14",  3,  -55,  1007,  0,  -1,  -1,  -11,  -26,  -32
1042710, 1710334274, "2024/3/13 12:51:14",  4,  -58,  1003,  0,  0,  -1,  -10,  -27,  -33
1042910, 1710334274, "2024/3/13 12:51:14",  -1,  -58,  1006,  0,  0,  -1,  -11,  -27,  -35
1043110, 1710334274, "2024/3/13 12:51:14",  4,  -60,  1008,  0,  -1,  -1,  -11,  -25,  -34
1043310, 1710334274, "2024/3/13 12:51:14",  3,  -57,  1000,  0,  0,  0,  -10,  -27,  -32
1043510, 1710334275, "2024/3/13 12:51:15",  3,  -63,  1003,  0,  0,  -1,  -12,  -26,  -34
1043710, 1710334275, "2024/3/13 12:51:15",  -2,  -59,  1005,  0,  0,  -1,  -11,  -26,  -33
1043910, 1710334275, "2024/3/13 12:51:15",  7,  -61,  998,  0,  -1,  0,  -10,  -25,  -35
1044110, 1710334275, "2024/3/13 12:51:15",  6,  -60,  1004,  0,  0,  0,  -10,  -26,  -33
1044310, 1710334275, "2024/3/13 12:51:15",  6,  -56,  1001,  0,  0,  0,  -10,  -27,  -33
1044510, 1710334276, "2024/3/13 12:51:16",  2,  -65,  1003,  0,  -1,  0,  -11,  -26,  -33
1044710, 1710334276, "2024/3/13 12:51:16",  2,  -57,  1005,  0,  0,  -1,  -11,  -27,  -34
1044910, 1710334276, "2024/3/13 12:51:16",  7,  -59,  1002,  0,  -1,  -1,  -9,  -26,  -34
1045110, 1710334276, "2024/3/13 12:51:16",  9,  -56,  1004,  0,  0,  0,  -9,  -26,  -35
1045310, 1710334276, "2024/3/13 12:51:16",  4,  -58,  1005,  0,  0,  -1,  -10,  -25,  -33
1045510, 1710334277, "2024/3/13 12:51:17",  8,  -60,  1002,  0,  0,  -1,  -9,  -24,  -33
1045710, 1710334277, "2024/3/13 12:51:17",  5,  -61,  1005,  0,  0,  -1,  -11,  -27,  -36
1045910, 1710334277, "2024/3/13 12:51:17",  6,  -59,  1002,  0,  0,  -1,  -11,  -25,  -34
1046110, 1710334277, "2024/3/13 12:51:17",  3,  -55,  1004,  0,  0,  0,  -10,  -28,  -33
1046310, 1710334277, "2024/3/13 12:51:17",  7,  -47,  1011,  0,  0,  0,  -9,  -27,  -33
1046510, 1710334278, "2024/3/13 12:51:18",  2,  -54,  1004,  0,  -1,  -1,  -12,  -24,  -36
1046710, 1710334278, "2024/3/13 12:51:18",  6,  -63,  1009,  0,  0,  -1,  -10,  -27,  -35
1046910, 1710334278, "2024/3/13 12:51:18",  0,  -61,  1002,  0,  0,  -1,  -10,  -26,  -34
1047110, 1710334278, "2024/3/13 12:51:18",  4,  -55,  1007,  0,  0,  -1,  -11,  -26,  -35
1047310, 1710334278, "2024/3/13 12:51:18",  4,  -61,  1003,  0,  0,  0,  -12,  -27,  -34
1047510, 1710334279, "2024/3/13 12:51:19",  9,  -56,  1001,  0,  0,  -1,  -11,  -26,  -34
1047710, 1710334279, "2024/3/13 12:51:19",  4,  -51,  1001,  0,  0,  -1,  -11,  -27,  -33
1047910, 1710334279, "2024/3/13 12:51:19",  4,  -61,  1001,  0,  0,  -1,  -11,  -26,  -33
1048110, 1710334279, "2024/3/13 12:51:19",  4,  -54,  1003,  0,  0,  -1,  -10,  -25,  -34
1048310, 1710334279, "2024/3/13 12:51:19",  3,  -57,  1005,  0,  0,  0,  -11,  -26,  -34
1048510, 1710334280, "2024/3/13 12:51:20",  9,  -53,  1005,  0,  0,  0,  -11,  -27,  -34
1048710, 1710334280, "2024/3/13 12:51:20",  1,  -63,  1001,  0,  0,  0,  -11,  -26,  -35
1048910, 1710334280, "2024/3/13 12:51:20",  4,  -68,  1006,  0,  0,  0,  -11,  -26,  -35
1049110, 1710334280, "2024/3/13 12:51:20",  5,  -61,  1001,  0,  0,  0,  -11,  -26,  -34
1049310, 1710334280, "2024/3/13 12:51:20",  5,  -58,  1003,  0,  0,  -1,  -9,  -25,  -34
1049510, 1710334281, "2024/3/13 12:51:21",  6,  -58,  1001,  0,  0,  -1,  -11,  -26,  -34
1049710, 1710334281, "2024/3/13 12:51:21",  6,  -51,  1004,  0,  0,  0,  -11,  -26,  -35
1049910, 1710334281, "2024/3/13 12:51:21",  6,  -63,  1000,  0,  0,  -1,  -12,  -26,  -34
1050110, 1710334281, "2024/3/13 12:51:21",  2,  -58,  1007,  0,  0,  -1,  -11,  -26,  -34
1050310, 1710334281, "2024/3/13 12:51:21",  9,  -55,  1000,  0,  0,  0,  -11,  -26,  -34
1050510, 1710334282, "2024/3/13 12:51:22",  7,  -63,  1006,  0,  0,  -1,  -10,  -26,  -34
1050710, 1710334282, "2024/3/13 12:51:22",  4,  -65,  1003,  0,  0,  -1,  -11,  -27,  -33
1050910, 1710334282, "2024/3/13 12:51:22",  3,  -53,  1001,  0,  -1,  -1,  -12,  -26,  -34
1051110, 1710334282, "2024/3/13 12:51:22",  1,  -56,  1005,  0,  0,  -1,  -11,  -27,  -34
1051310, 1710334282, "2024/3/13 12:51:22",  5,  -53,  1004,  0,  0,  0,  -11,  -28,  -34
1051510, 1710334283, "2024/3/13 12:51:23",  6,  -52,  1003,  0,  0,  0,  -11,  -27,  -34
1051710, 1710334283, "2024/3/13 12:51:23",  2,  -56,  1005,  0,  -1,  0,  -12,  -27,  -34
1051910, 1710334283, "2024/3/13 12:51:23",  5,  -55,  1003,  0,  -1,  -1,  -10,  -27,  -33
1052110, 1710334283, "2024/3/13 12:51:23",  0,  -54,  1003,  0,  0,  -1,  -12,  -27,  -36
1052310, 1710334283, "2024/3/13 12:51:23",  8,  -51,  1002,  0,  0,  -1,  -11,  -26,  -34
1052510, 1710334284, "2024/3/13 12:51:24",  2,  -62,  1003,  0,  0,  -1,  -10,  -27,  -34
1052710, 1710334284, "2024/3/13 12:51:24",  6,  -60,  1001,  0,  0,  -1,  -10,  -27,  -33
1052910, 1710334284, "2024/3/13 12:51:24",  2,  -59,  1003,  0,  0,  -1,  -11,  -26,  -34
1053110, 1710334284, "2024/3/13 12:51:24",  5,  -64,  1006,  0,  0,  -1,  -11,  -26,  -35
1053310, 1710334284, "2024/3/13 12:51:24",  1,  -59,  1005,  0,  0,  0,  -11,  -26,  -33
1053510, 1710334285, "2024/3/13 12:51:25",  6,  -56,  1002,  0,  0,  -1,  -9,  -28,  -33
1053710, 1710334285, "2024/3/13 12:51:25",  11,  -55,  1003,  0,  0,  -1,  -11,  -27,  -34
1053910, 1710334285, "2024/3/13 12:51:25",  4,  -58,  1000,  0,  0,  0,  -13,  -25,  -34
1054110, 1710334285, "2024/3/13 12:51:25",  5,  -53,  1003,  0,  0,  -1,  -12,  -24,  -32
1054310, 1710334285, "2024/3/13 12:51:25",  5,  -59,  1001,  0,  0,  0,  -11,  -27,  -34
1054510, 1710334286, "2024/3/13 12:51:26",  3,  -54,  1005,  0,  0,  -1,  -12,  -26,  -33
1054710, 1710334286, "2024/3/13 12:51:26",  6,  -59,  998,  0,  -1,  -1,  -11,  -27,  -34
1054910, 1710334286, "2024/3/13 12:51:26",  6,  -57,  1001,  0,  0,  -1,  -10,  -27,  -34
1055110, 1710334286, "2024/3/13 12:51:26",  4,  -54,  1000,  0,  -1,  -1,  -12,  -26,  -35
1055310, 1710334286, "2024/3/13 12:51:26",  8,  -63,  1005,  0,  0,  -1,  -11,  -26,  -33
1055510, 1710334287, "2024/3/13 12:51:27",  1,  -62,  1002,  0,  0,  -1,  -11,  -24,  -33
1055710, 1710334287, "2024/3/13 12:51:27",  7,  -58,  1000,  0,  0,  0,  -11,  -26,  -33
1055910, 1710334287, "2024/3/13 12:51:27",  6,  -57,  1004,  0,  0,  -1,  -10,  -25,  -32
1056110, 1710334287, "2024/3/13 12:51:27",  3,  -60,  1005,  0,  0,  -1,  -11,  -26,  -35
1056310, 1710334287, "2024/3/13 12:51:27",  9,  -59,  1003,  0,  -1,  0,  -11,  -26,  -33
1056510, 1710334288, "2024/3/13 12:51:28",  2,  -62,  1002,  0,  0,  0,  -11,  -28,  -34
1056710, 1710334288, "2024/3/13 12:51:28",  6,  -59,  1005,  0,  0,  0,  -10,  -27,  -35
1056910, 1710334288, "2024/3/13 12:51:28",  7,  -59,  1003,  0,  0,  -1,  -11,  -25,  -33
1057110, 1710334288, "2024/3/13 12:51:28",  3,  -57,  1006,  0,  0,  -1,  -11,  -26,  -34
1057310, 1710334288, "2024/3/13 12:51:28",  3,  -59,  1000,  0,  -1,  0,  -11,  -27,  -34
1057510, 1710334289, "2024/3/13 12:51:29",  -3,  -59,  998,  0,  -1,  -1,  -10,  -25,  -36
1057710, 1710334289, "2024/3/13 12:51:29",  9,  -59,  1006,  0,  0,  -1,  -10,  -25,  -34
1057910, 1710334289, "2024/3/13 12:51:29",  2,  -62,  1002,  0,  0,  0,  -11,  -28,  -33
1058110, 1710334289, "2024/3/13 12:51:29",  4,  -62,  1008,  0,  0,  0,  -10,  -26,  -34
1058310, 1710334289, "2024/3/13 12:51:29",  0,  -60,  1006,  0,  0,  0,  -12,  -25,  -35
1058510, 1710334290, "2024/3/13 12:51:30",  4,  -58,  1005,  0,  -1,  0,  -10,  -26,  -33
1058710, 1710334290, "2024/3/13 12:51:30",  6,  -56,  1005,  0,  0,  -1,  -10,  -27,  -33
1058910, 1710334290, "2024/3/13 12:51:30",  3,  -62,  1004,  0,  0,  -1,  -11,  -26,  -34
1059110, 1710334290, "2024/3/13 12:51:30",  4,  -58,  1008,  0,  -1,  -1,  -11,  -25,  -35
1059310, 1710334290, "2024/3/13 12:51:30",  12,  -54,  1000,  0,  0,  -1,  -11,  -27,  -35
1059510, 1710334291, "2024/3/13 12:51:31",  3,  -54,  1008,  0,  0,  -1,  -11,  -26,  -34
1059710, 1710334291, "2024/3/13 12:51:31",  5,  -63,  1005,  0,  0,  0,  -11,  -26,  -35
1059910, 1710334291, "2024/3/13 12:51:31",  1,  -58,  1002,  0,  0,  -1,  -11,  -26,  -34
1060110, 1710334291, "2024/3/13 12:51:31",  5,  -58,  1002,  0,  0,  -1,  -13,  -26,  -36
1060310, 1710334291, "2024/3/13 12:51:31",  5,  -63,  1003,  0,  -1,  -1,  -10,  -26,  -34
1060510, 1710334292, "2024/3/13 12:51:32",  6,  -60,  1008,  0,  0,  -1,  -12,  -27,  -34
1060710, 1710334292, "2024/3/13 12:51:32",  2,  -58,  1004,  0,  0,  -1,  -10,  -26,  -33
1060910, 1710334292, "2024/3/13 12:51:32",  5,  -60,  1003,  0,  0,  0,  -10,  -26,  -36
1061110, 1710334292, "2024/3/13 12:51:32",  5,  -56,  1005,  0,  0,  -1,  -11,  -26,  -33
1061310, 1710334292, "2024/3/13 12:51:32",  6,  -55,  1002,  0,  0,  -1,  -11,  -26,  -35
1061510, 1710334293, "2024/3/13 12:51:33",  6,  -58,  1006,  0,  0,  -1,  -11,  -28,  -34
1061710, 1710334293, "2024/3/13 12:51:33",  2,  -55,  1002,  0,  0,  -1,  -10,  -25,  -36
1061910, 1710334293, "2024/3/13 12:51:33",  2,  -54,  1006,  0,  -1,  0,  -9,  -26,  -34
1062110, 1710334293, "2024/3/13 12:51:33",  26,  -69,  990,  0,  -1,  0,  -11,  -26,  -34
1062310, 1710334293, "2024/3/13 12:51:33",  5,  -59,  1003,  0,  0,  0,  -11,  -27,  -35
1062510, 1710334294, "2024/3/13 12:51:34",  5,  -55,  1003,  0,  0,  -1,  -11,  -25,  -34
1062710, 1710334294, "2024/3/13 12:51:34",  7,  -56,  1001,  0,  0,  -1,  -11,  -26,  -36
1062910, 1710334294, "2024/3/13 12:51:34",  2,  -62,  1001,  0,  0,  0,  -10,  -28,  -35
1063110, 1710334294, "2024/3/13 12:51:34",  -2,  -60,  999,  0,  0,  0,  -10,  -27,  -33
1063310, 1710334295, "2024/3/13 12:51:35",  9,  -56,  1005,  0,  0,  -1,  -11,  -29,  -35
1063510, 1710334295, "2024/3/13 12:51:35",  7,  -58,  1005,  0,  0,  0,  -10,  -26,  -33
1063710, 1710334295, "2024/3/13 12:51:35",  2,  -59,  1003,  0,  -1,  -1,  -10,  -27,  -34
1063910, 1710334295, "2024/3/13 12:51:35",  1,  -57,  1003,  0,  0,  -1,  -12,  -27,  -33
1064110, 1710334295, "2024/3/13 12:51:35",  7,  -62,  1001,  0,  0,  -1,  -10,  -27,  -35
1064310, 1710334295, "2024/3/13 12:51:35",  3,  -53,  1006,  0,  0,  -1,  -11,  -27,  -35
1064510, 1710334296, "2024/3/13 12:51:36",  8,  -61,  1009,  0,  0,  -1,  -10,  -27,  -34
1064710, 1710334296, "2024/3/13 12:51:36",  5,  -55,  1008,  0,  0,  0,  -11,  -26,  -34
1064910, 1710334296, "2024/3/13 12:51:36",  3,  -54,  1005,  0,  0,  0,  -12,  -27,  -34
1065110, 1710334296, "2024/3/13 12:51:36",  5,  -61,  1004,  0,  0,  -1,  -11,  -26,  -33
1065310, 1710334296, "2024/3/13 12:51:36",  2,  -57,  1003,  0,  0,  -1,  -10,  -26,  -35
1065510, 1710334297, "2024/3/13 12:51:37",  6,  -60,  1004,  0,  0,  -1,  -9,  -25,  -33
1065710, 1710334297, "2024/3/13 12:51:37",  2,  -62,  1006,  0,  0,  -1,  -10,  -27,  -34
1065910, 1710334297, "2024/3/13 12:51:37",  11,  -59,  1002,  0,  0,  -1,  -12,  -26,  -34
1066110, 1710334297, "2024/3/13 12:51:37",  4,  -55,  1004,  0,  0,  -1,  -11,  -26,  -34
1066310, 1710334297, "2024/3/13 12:51:37",  6,  -59,  1005,  0,  -1,  -1,  -10,  -27,  -33
1066510, 1710334298, "2024/3/13 12:51:38",  3,  -57,  1002,  0,  -1,  -1,  -10,  -26,  -36
1066710, 1710334298, "2024/3/13 12:51:38",  8,  -58,  1003,  0,  -1,  0,  -12,  -27,  -35
1066910, 1710334298, "2024/3/13 12:51:38",  6,  -57,  1006,  0,  -1,  -1,  -10,  -28,  -33
1067110, 1710334298, "2024/3/13 12:51:38",  6,  -60,  1002,  0,  0,  -1,  -11,  -26,  -34
1067310, 1710334298, "2024/3/13 12:51:38",  6,  -51,  1003,  0,  0,  0,  -11,  -27,  -34
1067510, 1710334299, "2024/3/13 12:51:39",  3,  -56,  1005,  0,  0,  0,  -10,  -27,  -35
1067710, 1710334299, "2024/3/13 12:51:39",  2,  -63,  1004,  0,  0,  0,  -12,  -28,  -34
1067910, 1710334299, "2024/3/13 12:51:39",  7,  -61,  1004,  0,  0,  -1,  -10,  -26,  -33
1068110, 1710334299, "2024/3/13 12:51:39",  8,  -57,  1003,  0,  0,  -1,  -11,  -26,  -33
1068310, 1710334299, "2024/3/13 12:51:39",  5,  -57,  1004,  0,  0,  0,  -11,  -25,  -36
1068510, 1710334300, "2024/3/13 12:51:40",  5,  -57,  1004,  0,  0,  -1,  -12,  -26,  -35
1068710, 1710334300, "2024/3/13 12:51:40",  9,  -61,  1004,  0,  0,  0,  -11,  -27,  -34
1068910, 1710334300, "2024/3/13 12:51:40",  9,  -59,  1003,  0,  0,  -1,  -11,  -25,  -32
1069110, 1710334300, "2024/3/13 12:51:40",  10,  -61,  1004,  0,  0,  -1,  -11,  -25,  -34
1069310, 1710334301, "2024/3/13 12:51:41",  9,  -59,  1007,  0,  -1,  -1,  -12,  -27,  -34
1069510, 1710334301, "2024/3/13 12:51:41",  -1,  -60,  1003,  0,  0,  0,  -12,  -27,  -35
1069710, 1710334301, "2024/3/13 12:51:41",  1,  -55,  1004,  0,  -1,  0,  -11,  -27,  -33
1069910, 1710334301, "2024/3/13 12:51:41",  9,  -64,  1000,  0,  0,  0,  -11,  -26,  -36
1070110, 1710334301, "2024/3/13 12:51:41",  2,  -55,  1009,  0,  0,  0,  -11,  -27,  -35
1070310, 1710334302, "2024/3/13 12:51:42",  6,  -61,  1002,  0,  0,  0,  -10,  -24,  -36
1070510, 1710334302, "2024/3/13 12:51:42",  2,  -55,  1001,  0,  0,  -1,  -10,  -27,  -35
1070710, 1710334302, "2024/3/13 12:51:42",  9,  -57,  1001,  0,  0,  -1,  -11,  -27,  -34
1070910, 1710334302, "2024/3/13 12:51:42",  3,  -60,  1010,  1,  -1,  -1,  -11,  -27,  -36
1071110, 1710334302, "2024/3/13 12:51:42",  1,  -64,  1002,  0,  0,  -1,  -10,  -26,  -34
1071310, 1710334303, "2024/3/13 12:51:43",  7,  -57,  1010,  0,  0,  -1,  -9,  -27,  -34
1071510, 1710334303, "2024/3/13 12:51:43",  7,  -58,  1002,  0,  0,  -1,  -12,  -27,  -36
1071710, 1710334303, "2024/3/13 12:51:43",  5,  -59,  1003,  0,  0,  -1,  -11,  -27,  -34
1071910, 1710334303, "2024/3/13 12:51:43",  6,  -58,  1002,  0,  0,  -1,  -11,  -25,  -35
1072110, 1710334303, "2024/3/13 12:51:43",  4,  -56,  1004,  0,  0,  -1,  -12,  -27,  -34
1072310, 1710334304, "2024/3/13 12:51:44",  7,  -56,  1003,  0,  0,  -1,  -11,  -27,  -34
1072510, 1710334304, "2024/3/13 12:51:44",  9,  -57,  1003,  0,  -1,  -1,  -11,  -25,  -32
1072710, 1710334304, "2024/3/13 12:51:44",  6,  -52,  1005,  0,  0,  -1,  -10,  -26,  -34
1072910, 1710334304, "2024/3/13 12:51:44",  6,  -58,  1004,  0,  0,  -1,  -10,  -26,  -33
1073110, 1710334304, "2024/3/13 12:51:44",  5,  -53,  1004,  0,  0,  0,  -10,  -26,  -35
1073310, 1710334305, "2024/3/13 12:51:45",  9,  -57,  1002,  0,  0,  -1,  -11,  -26,  -34
1073510, 1710334305, "2024/3/13 12:51:45",  2,  -59,  1002,  0,  0,  -1,  -13,  -28,  -34
1073710, 1710334305, "2024/3/13 12:51:45",  7,  -61,  1006,  0,  0,  0,  -11,  -26,  -33
1073910, 1710334305, "2024/3/13 12:51:45",  7,  -67,  1008,  1,  0,  -1,  -11,  -27,  -34
1074110, 1710334305, "2024/3/13 12:51:45",  2,  -56,  1006,  0,  0,  0,  -9,  -27,  -33
1074310, 1710334306, "2024/3/13 12:51:46",  0,  -55,  1001,  0,  0,  -1,  -11,  -25,  -34
1074510, 1710334306, "2024/3/13 12:51:46",  6,  -57,  1008,  0,  -1,  -1,  -10,  -26,  -32
1074710, 1710334306, "2024/3/13 12:51:46",  8,  -61,  1000,  0,  0,  -1,  -10,  -27,  -34
1074910, 1710334306, "2024/3/13 12:51:46",  6,  -64,  1000,  0,  0,  -1,  -11,  -27,  -32
1075110, 1710334306, "2024/3/13 12:51:46",  11,  -56,  1001,  0,  0,  -1,  -11,  -26,  -33
1075310, 1710334307, "2024/3/13 12:51:47",  3,  -56,  1003,  0,  0,  -1,  -10,  -26,  -33
1075510, 1710334307, "2024/3/13 12:51:47",  1,  -47,  1003,  0,  0,  0,  -11,  -26,  -34
1075710, 1710334307, "2024/3/13 12:51:47",  5,  -55,  1003,  0,  0,  -1,  -9,  -25,  -34
1075910, 1710334307, "2024/3/13 12:51:47",  8,  -60,  1004,  0,  0,  0,  -10,  -25,  -33
1076110, 1710334307, "2024/3/13 12:51:47",  0,  -54,  1001,  0,  0,  -1,  -11,  -26,  -34
1076310, 1710334308, "2024/3/13 12:51:48",  10,  -62,  1006,  0,  0,  0,  -11,  -25,  -35
1076510, 1710334308, "2024/3/13 12:51:48",  4,  -63,  1002,  0,  0,  -1,  -11,  -26,  -33
1076710, 1710334308, "2024/3/13 12:51:48",  9,  -56,  1005,  0,  0,  0,  -11,  -25,  -35
1076910, 1710334308, "2024/3/13 12:51:48",  2,  -59,  1008,  0,  0,  -1,  -10,  -27,  -35
1077110, 1710334308, "2024/3/13 12:51:48",  8,  -63,  1001,  0,  -1,  -1,  -10,  -26,  -33
1077310, 1710334309, "2024/3/13 12:51:49",  5,  -60,  1004,  1,  0,  -1,  -10,  -25,  -34
1077510, 1710334309, "2024/3/13 12:51:49",  6,  -58,  1005,  0,  0,  -1,  -11,  -25,  -34
1077710, 1710334309, "2024/3/13 12:51:49",  13,  -60,  1013,  0,  0,  -1,  -9,  -26,  -34
1077910, 1710334309, "2024/3/13 12:51:49",  7,  -58,  1001,  0,  0,  0,  -9,  -27,  -35
1078110, 1710334309, "2024/3/13 12:51:49",  7,  -55,  1005,  0,  0,  -1,  -11,  -28,  -34
1078310, 1710334310, "2024/3/13 12:51:50",  11,  -59,  1006,  0,  0,  0,  -11,  -27,  -33
1078510, 1710334310, "2024/3/13 12:51:50",  6,  -66,  1006,  0,  0,  0,  -11,  -26,  -36
1078710, 1710334310, "2024/3/13 12:51:50",  8,  -56,  1001,  0,  0,  -1,  -11,  -27,  -33
1078910, 1710334310, "2024/3/13 12:51:50",  2,  -60,  1000,  0,  0,  -1,  -11,  -25,  -35
1079110, 1710334310, "2024/3/13 12:51:50",  1,  -58,  1006,  0,  0,  -1,  -11,  -27,  -34
1079310, 1710334311, "2024/3/13 12:51:51",  0,  -51,  1000,  0,  0,  0,  -10,  -26,  -34
1079510, 1710334311, "2024/3/13 12:51:51",  8,  -58,  1007,  0,  0,  0,  -11,  -26,  -35
1079710, 1710334311, "2024/3/13 12:51:51",  6,  -59,  1004,  0,  0,  0,  -9,  -26,  -33
1079910, 1710334311, "2024/3/13 12:51:51",  7,  -59,  1005,  0,  0,  -1,  -11,  -26,  -34
1080110, 1710334311, "2024/3/13 12:51:51",  6,  -59,  1004,  0,  0,  -1,  -11,  -26,  -33
1080310, 1710334312, "2024/3/13 12:51:52",  10,  -59,  1003,  0,  -1,  -1,  -9,  -26,  -34
1080510, 1710334312, "2024/3/13 12:51:52",  9,  -54,  1003,  0,  0,  0,  -12,  -27,  -33
1080710, 1710334312, "2024/3/13 12:51:52",  5,  -66,  1007,  0,  0,  0,  -11,  -26,  -35
1080910, 1710334312, "2024/3/13 12:51:52",  6,  -52,  1003,  0,  0,  -1,  -11,  -26,  -34
1081110, 1710334312, "2024/3/13 12:51:52",  6,  -50,  1003,  0,  0,  0,  -12,  -27,  -33
1081310, 1710334313, "2024/3/13 12:51:53",  6,  -58,  1003,  0,  -1,  -1,  -11,  -28,  -35
1081510, 1710334313, "2024/3/13 12:51:53",  3,  -63,  1009,  0,  0,  -1,  -10,  -26,  -34
1081710, 1710334313, "2024/3/13 12:51:53",  4,  -60,  1006,  0,  0,  0,  -12,  -26,  -33
1081910, 1710334313, "2024/3/13 12:51:53",  5,  -61,  1006,  0,  0,  0,  -11,  -27,  -35
1082110, 1710334313, "2024/3/13 12:51:53",  1,  -60,  1004,  0,  0,  -1,  -9,  -27,  -34
1082310, 1710334314, "2024/3/13 12:51:54",  4,  -57,  1007,  0,  0,  -1,  -10,  -25,  -36
1082510, 1710334314, "2024/3/13 12:51:54",  6,  -55,  1002,  0,  -1,  0,  -10,  -27,  -33
1082710, 1710334314, "2024/3/13 12:51:54",  4,  -54,  1005,  0,  0,  -1,  -11,  -28,  -35
1082910, 1710334314, "2024/3/13 12:51:54",  7,  -60,  1005,  0,  0,  -1,  -9,  -25,  -34
1083110, 1710334314, "2024/3/13 12:51:54",  7,  -60,  1005,  0,  -1,  0,  -11,  -26,  -34
1083310, 1710334315, "2024/3/13 12:51:55",  7,  -59,  1004,  0,  0,  0,  -11,  -28,  -34
1083510, 1710334315, "2024/3/13 12:51:55",  10,  -57,  1001,  0,  0,  -1,  -11,  -29,  -36
1083710, 1710334315, "2024/3/13 12:51:55",  9,  -55,  1003,  0,  -1,  0,  -11,  -27,  -34
1083910, 1710334315, "2024/3/13 12:51:55",  7,  -57,  1004,  0,  -1,  -1,  -12,  -26,  -34
1084110, 1710334315, "2024/3/13 12:51:55",  10,  -60,  1007,  0,  0,  0,  -11,  -27,  -34
1084310, 1710334316, "2024/3/13 12:51:56",  4,  -61,  1002,  0,  0,  -1,  -10,  -27,  -35
1084510, 1710334316, "2024/3/13 12:51:56",  7,  -63,  1005,  0,  0,  -1,  -11,  -28,  -35
1084710, 1710334316, "2024/3/13 12:51:56",  5,  -57,  1003,  0,  0,  -1,  -11,  -28,  -33
1084910, 1710334316, "2024/3/13 12:51:56",  6,  -60,  998,  0,  0,  0,  -11,  -27,  -33
1085110, 1710334316, "2024/3/13 12:51:56",  3,  -58,  1002,  0,  0,  0,  -11,  -25,  -35
1085310, 1710334317, "2024/3/13 12:51:57",  5,  -53,  1004,  0,  0,  0,  -11,  -27,  -34
1085510, 1710334317, "2024/3/13 12:51:57",  9,  -57,  1003,  0,  -1,  -1,  -11,  -28,  -34
1085710, 1710334317, "2024/3/13 12:51:57",  10,  -57,  1008,  0,  0,  -1,  -10,  -26,  -33
1085910, 1710334317, "2024/3/13 12:51:57",  7,  -57,  1003,  0,  0,  -1,  -11,  -26,  -32
1086110, 1710334317, "2024/3/13 12:51:57",  1,  -59,  1006,  0,  0,  0,  -12,  -25,  -35
1086310, 1710334318, "2024/3/13 12:51:58",  4,  -56,  1005,  0,  0,  0,  -11,  -27,  -34
1086510, 1710334318, "2024/3/13 12:51:58",  5,  -56,  1004,  0,  0,  -1,  -10,  -26,  -36
1086710, 1710334318, "2024/3/13 12:51:58",  8,  -57,  1003,  0,  0,  -1,  -10,  -26,  -34
1086910, 1710334318, "2024/3/13 12:51:58",  4,  -61,  1006,  0,  0,  0,  -11,  -27,  -33
1087110, 1710334318, "2024/3/13 12:51:58",  7,  -55,  1003,  0,  0,  -1,  -11,  -26,  -33
1087310, 1710334319, "2024/3/13 12:51:59",  6,  -60,  1007,  0,  0,  0,  -11,  -27,  -34
1087510, 1710334319, "2024/3/13 12:51:59",  5,  -61,  1005,  0,  0,  -1,  -10,  -27,  -34
1087710, 1710334319, "2024/3/13 12:51:59",  5,  -56,  1000,  0,  0,  -1,  -10,  -28,  -35
1087910, 1710334319, "2024/3/13 12:51:59",  7,  -62,  1002,  0,  0,  -1,  -9,  -27,  -35
1088110, 1710334319, "2024/3/13 12:51:59",  9,  -55,  1006,  0,  0,  -1,  -11,  -27,  -34
1088310, 1710334320, "2024/3/13 12:52:0",  8,  -64,  1001,  0,  0,  0,  -11,  -27,  -34
1088510, 1710334320, "2024/3/13 12:52:0",  4,  -55,  1003,  0,  0,  -1,  -12,  -27,  -32
1088710, 1710334320, "2024/3/13 12:52:0",  8,  -60,  1001,  0,  0,  -1,  -10,  -28,  -34
1088910, 1710334320, "2024/3/13 12:52:0",  5,  -57,  1000,  0,  0,  0,  -12,  -27,  -33
1089110, 1710334320, "2024/3/13 12:52:0",  6,  -60,  1009,  0,  0,  0,  -11,  -27,  -35
1089310, 1710334321, "2024/3/13 12:52:1",  10,  -58,  1001,  0,  -1,  0,  -10,  -26,  -34
1089510, 1710334321, "2024/3/13 12:52:1",  9,  -62,  1006,  0,  0,  -1,  -11,  -26,  -35
1089710, 1710334321, "2024/3/13 12:52:1",  5,  -59,  1005,  0,  0,  -1,  -10,  -26,  -35
1089910, 1710334321, "2024/3/13 12:52:1",  8,  -57,  1001,  0,  0,  -1,  -11,  -28,  -34
1090110, 1710334321, "2024/3/13 12:52:1",  6,  -61,  1002,  0,  0,  0,  -10,  -25,  -36
1090310, 1710334322, "2024/3/13 12:52:2",  3,  -55,  1003,  0,  -1,  0,  -12,  -26,  -35
1090510, 1710334322, "2024/3/13 12:52:2",  5,  -59,  1007,  0,  -1,  0,  -12,  -27,  -34
1090710, 1710334322, "2024/3/13 12:52:2",  6,  -60,  1002,  0,  0,  0,  -11,  -26,  -34
1090910, 1710334322, "2024/3/13 12:52:2",  6,  -62,  1005,  0,  0,  -1,  -11,  -26,  -34
1091110, 1710334322, "2024/3/13 12:52:2",  7,  -59,  1004,  0,  0,  -1,  -11,  -27,  -34
1091310, 1710334323, "2024/3/13 12:52:3",  7,  -56,  1002,  0,  0,  0,  -11,  -26,  -34
1091510, 1710334323, "2024/3/13 12:52:3",  9,  -55,  1005,  0,  0,  -1,  -10,  -26,  -34
1091710, 1710334323, "2024/3/13 12:52:3",  11,  -54,  1007,  0,  0,  -1,  -11,  -27,  -34
1091910, 1710334323, "2024/3/13 12:52:3",  11,  -62,  1006,  0,  0,  -1,  -11,  -26,  -35
1092110, 1710334323, "2024/3/13 12:52:3",  8,  -55,  1005,  0,  0,  0,  -10,  -27,  -34
1092310, 1710334324, "2024/3/13 12:52:4",  6,  -62,  1000,  0,  0,  0,  -11,  -26,  -34
1092510, 1710334324, "2024/3/13 12:52:4",  8,  -61,  1002,  0,  0,  -1,  -10,  -25,  -35
1092710, 1710334324, "2024/3/13 12:52:4",  4,  -60,  1003,  0,  0,  0,  -11,  -27,  -33
1092910, 1710334324, "2024/3/13 12:52:4",  7,  -52,  1006,  0,  0,  0,  -11,  -27,  -34
1093110, 1710334324, "2024/3/13 12:52:4",  2,  -61,  1003,  0,  -1,  0,  -11,  -27,  -35
1093310, 1710334325, "2024/3/13 12:52:5",  11,  -56,  1004,  0,  0,  -1,  -11,  -26,  -34
1093510, 1710334325, "2024/3/13 12:52:5",  10,  -50,  1005,  0,  0,  -1,  -11,  -27,  -34
1093710, 1710334325, "2024/3/13 12:52:5",  2,  -53,  1006,  0,  0,  -1,  -10,  -26,  -33
1093910, 1710334325, "2024/3/13 12:52:5",  4,  -56,  1004,  0,  0,  0,  -10,  -27,  -33
1094110, 1710334325, "2024/3/13 12:52:5",  2,  -57,  1004,  0,  0,  0,  -11,  -28,  -36
1094310, 1710334326, "2024/3/13 12:52:6",  7,  -55,  1005,  0,  0,  0,  -11,  -27,  -35
1094510, 1710334326, "2024/3/13 12:52:6",  3,  -63,  1003,  0,  0,  0,  -12,  -26,  -32
1094710, 1710334326, "2024/3/13 12:52:6",  11,  -55,  1001,  0,  0,  -1,  -12,  -27,  -35
1094910, 1710334326, "2024/3/13 12:52:6",  5,  -60,  1001,  0,  0,  0,  -12,  -27,  -33
1095110, 1710334326, "2024/3/13 12:52:6",  2,  -62,  1003,  0,  0,  0,  -9,  -27,  -34
1095310, 1710334327, "2024/3/13 12:52:7",  4,  -56,  1003,  0,  0,  -1,  -11,  -26,  -35
1095510, 1710334327, "2024/3/13 12:52:7",  7,  -58,  1000,  0,  0,  -1,  -9,  -26,  -36
1095710, 1710334327, "2024/3/13 12:52:7",  8,  -53,  1003,  0,  0,  -1,  -12,  -25,  -34
1095910, 1710334327, "2024/3/13 12:52:7",  3,  -59,  1004,  0,  0,  -1,  -10,  -28,  -33
1096110, 1710334327, "2024/3/13 12:52:7",  5,  -57,  1005,  0,  0,  0,  -11,  -26,  -34
1096310, 1710334328, "2024/3/13 12:52:8",  2,  -56,  1004,  0,  0,  0,  -10,  -26,  -36
1096510, 1710334328, "2024/3/13 12:52:8",  6,  -57,  1004,  0,  0,  0,  -10,  -25,  -33
1096710, 1710334328, "2024/3/13 12:52:8",  4,  -58,  1003,  0,  0,  0,  -11,  -27,  -34
1096910, 1710334328, "2024/3/13 12:52:8",  5,  -60,  1004,  0,  0,  0,  -10,  -26,  -34
1097110, 1710334328, "2024/3/13 12:52:8",  1,  -57,  1000,  0,  0,  0,  -10,  -28,  -35
1097310, 1710334329, "2024/3/13 12:52:9",  5,  -61,  1002,  0,  0,  0,  -11,  -27,  -33
1097510, 1710334329, "2024/3/13 12:52:9",  4,  -59,  1003,  0,  0,  0,  -12,  -26,  -34
1097710, 1710334329, "2024/3/13 12:52:9",  5,  -62,  1003,  0,  0,  -1,  -10,  -27,  -36
1097910, 1710334329, "2024/3/13 12:52:9",  5,  -53,  1005,  0,  0,  -1,  -9,  -27,  -35
1098110, 1710334329, "2024/3/13 12:52:9",  4,  -60,  1005,  0,  0,  0,  -11,  -26,  -34
1098310, 1710334330, "2024/3/13 12:52:10",  9,  -58,  1004,  0,  0,  0,  -10,  -25,  -34
1098510, 1710334330, "2024/3/13 12:52:10",  4,  -59,  1008,  0,  0,  0,  -10,  -25,  -33
1098710, 1710334330, "2024/3/13 12:52:10",  6,  -57,  1002,  0,  -1,  -1,  -11,  -26,  -33
1098910, 1710334330, "2024/3/13 12:52:10",  8,  -58,  1007,  0,  0,  0,  -11,  -27,  -34
1099110, 1710334330, "2024/3/13 12:52:10",  5,  -58,  1003,  0,  0,  -1,  -11,  -28,  -34
1099310, 1710334331, "2024/3/13 12:52:11",  11,  -60,  1002,  0,  0,  0,  -10,  -27,  -33
1099510, 1710334331, "2024/3/13 12:52:11",  8,  -58,  1004,  0,  0,  0,  -11,  -26,  -34
1099710, 1710334331, "2024/3/13 12:52:11",  8,  -59,  1005,  0,  0,  -1,  -10,  -25,  -35
1099910, 1710334331, "2024/3/13 12:52:11",  5,  -60,  1005,  0,  0,  -1,  -11,  -27,  -34
1100110, 1710334331, "2024/3/13 12:52:11",  4,  -60,  1003,  0,  -1,  -1,  -9,  -26,  -33
1100310, 1710334332, "2024/3/13 12:52:12",  6,  -57,  1005,  0,  0,  -1,  -11,  -26,  -35
1100510, 1710334332, "2024/3/13 12:52:12",  6,  -60,  1002,  0,  0,  -1,  -10,  -25,  -35
1100710, 1710334332, "2024/3/13 12:52:12",  6,  -56,  1001,  0,  0,  0,  -11,  -28,  -34
1100910, 1710334332, "2024/3/13 12:52:12",  8,  -63,  1002,  0,  0,  0,  -10,  -28,  -35
1101110, 1710334332, "2024/3/13 12:52:12",  4,  -55,  1006,  0,  0,  -1,  -9,  -26,  -34
1101310, 1710334333, "2024/3/13 12:52:13",  4,  -57,  1004,  0,  0,  0,  -12,  -27,  -34
1101510, 1710334333, "2024/3/13 12:52:13",  9,  -60,  1004,  0,  0,  0,  -11,  -27,  -34
1101710, 1710334333, "2024/3/13 12:52:13",  6,  -57,  1004,  0,  0,  -1,  -10,  -25,  -35
1101910, 1710334333, "2024/3/13 12:52:13",  5,  -61,  1004,  0,  0,  -1,  -11,  -26,  -34
1102110, 1710334333, "2024/3/13 12:52:13",  7,  -61,  1002,  0,  0,  -1,  -11,  -27,  -33
1102310, 1710334334, "2024/3/13 12:52:14",  1,  -61,  1003,  0,  0,  0,  -11,  -28,  -32
1102510, 1710334334, "2024/3/13 12:52:14",  4,  -62,  1006,  0,  -1,  0,  -11,  -27,  -34
