millis,stamp,datetime,accX,accY,accZ,gyroX,gyroY,gyroZ,compX,compY,compZ
3512118, 1710336745, "2024/3/13 13:32:25",  7,  -56,  1001,  0,  -1,  0,  -11,  -26,  -36
3512318, 1710336745, "2024/3/13 13:32:25",  8,  -57,  1004,  0,  0,  -1,  -10,  -28,  -36
3512518, 1710336745, "2024/3/13 13:32:25",  9,  -63,  1000,  0,  0,  0,  -10,  -25,  -36
3512718, 1710336745, "2024/3/13 13:32:25",  5,  -57,  1002,  0,  -1,  -1,  -11,  -26,  -36
3512918, 1710336746, "2024/3/13 13:32:26",  5,  -56,  1003,  0,  0,  0,  -10,  -27,  -37
3513118, 1710336746, "2024/3/13 13:32:26",  6,  -55,  1004,  0,  0,  0,  -9,  -27,  -38
3513318, 1710336746, "2024/3/13 13:32:26",  4,  -64,  1006,  0,  0,  0,  -11,  -25,  -36
3513518, 1710336746, "2024/3/13 13:32:26",  3,  -52,  1001,  0,  -1,  -1,  -10,  -27,  -37
3513718, 1710336746, "2024/3/13 13:32:26",  3,  -54,  1002,  0,  -1,  -1,  -11,  -25,  -36
3513918, 1710336747, "2024/3/13 13:32:27",  6,  -54,  1000,  0,  0,  -1,  -11,  -28,  -37
3514118, 1710336747, "2024/3/13 13:32:27",  8,  -52,  1005,  0,  0,  -1,  -11,  -27,  -37
3514318, 1710336747, "2024/3/13 13:32:27",  5,  -64,  1002,  0,  0,  0,  -10,  -26,  -37
3514518, 1710336747, "2024/3/13 13:32:27",  4,  -55,  1003,  0,  0,  -1,  -9,  -28,  -37
3514718, 1710336747, "2024/3/13 13:32:27",  7,  -60,  1000,  0,  0,  -1,  -10,  -27,  -36
3514918, 1710336748, "2024/3/13 13:32:28",  11,  -58,  1004,  0,  0,  0,  -11,  -28,  -36
3515118, 1710336748, "2024/3/13 13:32:28",  8,  -57,  1004,  0,  0,  -1,  -10,  -26,  -35
3515318, 1710336748, "2024/3/13 13:32:28",  11,  -57,  1001,  0,  -1,  -1,  -10,  -26,  -36
3515518, 1710336748, "2024/3/13 13:32:28",  6,  -54,  1005,  0,  -1,  0,  -10,  -27,  -37
3515718, 1710336748, "2024/3/13 13:32:28",  5,  -57,  1004,  0,  0,  -1,  -11,  -27,  -36
3515918, 1710336749, "2024/3/13 13:32:29",  6,  -51,  1003,  0,  0,  0,  -10,  -26,  -36
3516118, 1710336749, "2024/3/13 13:32:29",  7,  -54,  999,  0,  0,  0,  -9,  -28,  -37
3516318, 1710336749, "2024/3/13 13:32:29",  10,  -58,  1002,  0,  0,  -1,  -11,  -27,  -36
3516518, 1710336749, "2024/3/13 13:32:29",  5,  -54,  1006,  0,  0,  -1,  -10,  -28,  -35
3516718, 1710336749, "2024/3/13 13:32:29",  9,  -63,  1005,  0,  0,  0,  -11,  -28,  -37
3516918, 1710336750, "2024/3/13 13:32:30",  13,  -66,  1002,  0,  0,  -1,  -10,  -27,  -36
3517118, 1710336750, "2024/3/13 13:32:30",  12,  -55,  1004,  0,  0,  -1,  -9,  -26,  -37
3517318, 1710336750, "2024/3/13 13:32:30",  6,  -56,  1003,  0,  0,  -1,  -10,  -26,  -37
3517518, 1710336750, "2024/3/13 13:32:30",  2,  -46,  1003,  0,  0,  -1,  -12,  -26,  -37
3517718, 1710336750, "2024/3/13 13:32:30",  -4,  -58,  1005,  0,  0,  -1,  -11,  -26,  -37
3517918, 1710336751, "2024/3/13 13:32:31",  6,  -66,  1001,  0,  0,  0,  -10,  -26,  -35
3518118, 1710336751, "2024/3/13 13:32:31",  0,  -64,  1005,  0,  -1,  -1,  -10,  -27,  -37
3518318, 1710336751, "2024/3/13 13:32:31",  4,  -58,  1003,  0,  -1,  -1,  -11,  -26,  -37
3518518, 1710336751, "2024/3/13 13:32:31",  5,  -57,  1004,  0,  0,  -1,  -10,  -27,  -35
3518718, 1710336751, "2024/3/13 13:32:31",  7,  -59,  1005,  0,  0,  -1,  -12,  -27,  -36
3518918, 1710336752, "2024/3/13 13:32:32",  4,  -62,  1003,  0,  0,  -1,  -11,  -26,  -36
3519118, 1710336752, "2024/3/13 13:32:32",  5,  -64,  1004,  0,  0,  -1,  -10,  -25,  -38
3519318, 1710336752, "2024/3/13 13:32:32",  1,  -50,  1004,  0,  0,  -1,  -11,  -26,  -36
3519518, 1710336752, "2024/3/13 13:32:32",  8,  -57,  1007,  0,  0,  -1,  -11,  -27,  -37
3519718, 1710336752, "2024/3/13 13:32:32",  7,  -58,  1003,  0,  0,  -1,  -11,  -27,  -36
3519918, 1710336753, "2024/3/13 13:32:33",  9,  -52,  1006,  0,  0,  -1,  -9,  -27,  -36
3520118, 1710336753, "2024/3/13 13:32:33",  8,  -61,  1006,  0,  0,  0,  -10,  -27,  -35
3520318, 1710336753, "2024/3/13 13:32:33",  0,  -49,  1001,  0,  -1,  -1,  -12,  -26,  -37
3520518, 1710336753, "2024/3/13 13:32:33",  0,  -55,  1002,  0,  0,  0,  -11,  -27,  -36
3520718, 1710336753, "2024/3/13 13:32:33",  -1,  -59,  1003,  0,  0,  0,  -9,  -26,  -37
3520918, 1710336754, "2024/3/13 13:32:34",  3,  -56,  1001,  0,  0,  0,  -10,  -25,  -37
3521118, 1710336754, "2024/3/13 13:32:34",  3,  -57,  1003,  0,  0,  -1,  -11,  -25,  -36
3521318, 1710336754, "2024/3/13 13:32:34",  5,  -57,  1003,  0,  -1,  -1,  -9,  -27,  -36
3521518, 1710336754, "2024/3/13 13:32:34",  7,  -55,  1001,  0,  0,  0,  -11,  -26,  -36
3521718, 1710336754, "2024/3/13 13:32:34",  10,  -57,  1000,  0,  0,  -1,  -9,  -27,  -36
3521918, 1710336755, "2024/3/13 13:32:35",  5,  -57,  1002,  0,  0,  0,  -11,  -28,  -36
3522118, 1710336755, "2024/3/13 13:32:35",  8,  -62,  1003,  0,  0,  -1,  -11,  -27,  -36
3522318, 1710336755, "2024/3/13 13:32:35",  3,  -68,  1005,  0,  0,  -1,  -11,  -27,  -36
3522518, 1710336755, "2024/3/13 13:32:35",  4,  -57,  1002,  0,  0,  0,  -8,  -27,  -36
3522718, 1710336755, "2024/3/13 13:32:35",  6,  -59,  999,  0,  0,  0,  -10,  -27,  -35
3522918, 1710336756, "2024/3/13 13:32:36",  1,  -59,  1004,  0,  -1,  -1,  -10,  -26,  -37
3523118, 1710336756, "2024/3/13 13:32:36",  7,  -56,  1004,  0,  0,  0,  -11,  -26,  -36
3523318, 1710336756, "2024/3/13 13:32:36",  3,  -61,  1003,  0,  0,  0,  -11,  -27,  -37
3523518, 1710336756, "2024/3/13 13:32:36",  6,  -55,  1004,  0,  0,  0,  -11,  -27,  -36
3523718, 1710336756, "2024/3/13 13:32:36",  2,  -61,  1000,  0,  -1,  -1,  -10,  -26,  -37
3523918, 1710336757, "2024/3/13 13:32:37",  6,  -59,  1007,  0,  0,  -1,  -9,  -26,  -37
3524118, 1710336757, "2024/3/13 13:32:37",  3,  -58,  1004,  0,  0,  0,  -11,  -27,  -36
3524318, 1710336757, "2024/3/13 13:32:37",  8,  -59,  1003,  0,  0,  0,  -11,  -27,  -36
3524518, 1710336757, "2024/3/13 13:32:37",  7,  -59,  1003,  0,  0,  0,  -9,  -26,  -39
3524718, 1710336757, "2024/3/13 13:32:37",  7,  -65,  1005,  0,  0,  -1,  -11,  -27,  -36
3524918, 1710336758, "2024/3/13 13:32:38",  8,  -57,  1004,  0,  -1,  0,  -13,  -27,  -37
3525118, 1710336758, "2024/3/13 13:32:38",  11,  -65,  1004,  0,  0,  -1,  -10,  -25,  -37
3525318, 1710336758, "2024/3/13 13:32:38",  3,  -57,  1003,  0,  -1,  0,  -10,  -26,  -36
3525518, 1710336758, "2024/3/13 13:32:38",  6,  -60,  1004,  0,  0,  -1,  -8,  -26,  -37
3525718, 1710336758, "2024/3/13 13:32:38",  2,  -65,  1003,  0,  0,  -1,  -11,  -26,  -36
3525918, 1710336759, "2024/3/13 13:32:39",  9,  -56,  1003,  0,  0,  0,  -9,  -26,  -38
3526118, 1710336759, "2024/3/13 13:32:39",  11,  -60,  1000,  0,  0,  0,  -12,  -26,  -36
3526318, 1710336759, "2024/3/13 13:32:39",  4,  -58,  1009,  0,  0,  0,  -11,  -26,  -37
3526518, 1710336759, "2024/3/13 13:32:39",  3,  -64,  1007,  0,  -1,  0,  -10,  -28,  -36
3526718, 1710336759, "2024/3/13 13:32:39",  10,  -57,  1002,  0,  0,  -1,  -10,  -27,  -36
3526918, 1710336760, "2024/3/13 13:32:40",  13,  -56,  1009,  0,  0,  -1,  -10,  -27,  -36
3527118, 1710336760, "2024/3/13 13:32:40",  11,  -55,  1002,  0,  0,  -1,  -11,  -27,  -37
3527318, 1710336760, "2024/3/13 13:32:40",  8,  -62,  1003,  0,  0,  -1,  -11,  -29,  -36
3527518, 1710336760, "2024/3/13 13:32:40",  11,  -67,  1004,  0,  0,  -1,  -11,  -26,  -36
3527718, 1710336760, "2024/3/13 13:32:40",  12,  -56,  1004,  0,  0,  0,  -10,  -27,  -37
3527918, 1710336761, "2024/3/13 13:32:41",  3,  -55,  1003,  0,  0,  -1,  -10,  -27,  -37
3528118, 1710336761, "2024/3/13 13:32:41",  6,  -55,  1003,  0,  0,  -1,  -11,  -27,  -38
3528318, 1710336761, "2024/3/13 13:32:41",  3,  -60,  1004,  0,  0,  -1,  -9,  -27,  -36
3528518, 1710336761, "2024/3/13 13:32:41",  7,  -53,  1000,  0,  0,  -1,  -11,  -28,  -36
3528718, 1710336761, "2024/3/13 13:32:41",  7,  -62,  1004,  0,  0,  -1,  -9,  -27,  -36
3528918, 1710336762, "2024/3/13 13:32:42",  11,  -63,  1003,  0,  0,  0,  -11,  -27,  -37
3529118, 1710336762, "2024/3/13 13:32:42",  13,  -66,  1008,  0,  0,  -1,  -10,  -25,  -38
3529318, 1710336762, "2024/3/13 13:32:42",  15,  -56,  1002,  0,  0,  -1,  -11,  -26,  -36
3529518, 1710336762, "2024/3/13 13:32:42",  6,  -58,  1001,  0,  0,  0,  -11,  -26,  -38
3529718, 1710336762, "2024/3/13 13:32:42",  8,  -59,  1006,  0,  0,  -1,  -11,  -27,  -36
3529918, 1710336763, "2024/3/13 13:32:43",  5,  -59,  1001,  0,  -1,  -1,  -13,  -28,  -37
3530118, 1710336763, "2024/3/13 13:32:43",  5,  -62,  1004,  0,  0,  0,  -12,  -28,  -37
3530318, 1710336763, "2024/3/13 13:32:43",  7,  -56,  1002,  0,  -1,  -1,  -10,  -28,  -36
3530518, 1710336763, "2024/3/13 13:32:43",  5,  -60,  1005,  0,  0,  -1,  -11,  -27,  -38
3530718, 1710336763, "2024/3/13 13:32:43",  1,  -57,  1007,  0,  0,  -1,  -10,  -27,  -37
3530918, 1710336764, "2024/3/13 13:32:44",  6,  -63,  1006,  0,  0,  -1,  -11,  -27,  -36
3531118, 1710336764, "2024/3/13 13:32:44",  11,  -55,  1001,  0,  0,  0,  -11,  -26,  -36
3531318, 1710336764, "2024/3/13 13:32:44",  5,  -67,  996,  0,  0,  -1,  -10,  -27,  -36
3531518, 1710336764, "2024/3/13 13:32:44",  8,  -55,  1004,  1,  0,  0,  -10,  -28,  -35
3531718, 1710336764, "2024/3/13 13:32:44",  7,  -56,  1009,  0,  -1,  -1,  -11,  -26,  -35
3531918, 1710336765, "2024/3/13 13:32:45",  11,  -59,  1001,  0,  -1,  -1,  -11,  -26,  -35
3532118, 1710336765, "2024/3/13 13:32:45",  4,  -57,  1002,  0,  0,  -1,  -11,  -27,  -36
3532318, 1710336765, "2024/3/13 13:32:45",  8,  -61,  1004,  0,  0,  -1,  -13,  -26,  -36
3532518, 1710336765, "2024/3/13 13:32:45",  6,  -60,  1005,  0,  -1,  -1,  -9,  -27,  -37
3532718, 1710336765, "2024/3/13 13:32:45",  0,  -53,  1000,  0,  0,  -1,  -11,  -27,  -36
3532918, 1710336766, "2024/3/13 13:32:46",  -3,  -59,  1004,  0,  -1,  -1,  -9,  -27,  -35
3533118, 1710336766, "2024/3/13 13:32:46",  1,  -63,  1005,  0,  0,  -1,  -11,  -26,  -38
3533318, 1710336766, "2024/3/13 13:32:46",  2,  -62,  1005,  0,  0,  0,  -11,  -26,  -36
3533518, 1710336766, "2024/3/13 13:32:46",  7,  -60,  1003,  0,  0,  0,  -12,  -27,  -37
3533718, 1710336766, "2024/3/13 13:32:46",  12,  -62,  1004,  0,  0,  -1,  -11,  -27,  -36
3533918, 1710336767, "2024/3/13 13:32:47",  9,  -64,  1004,  0,  -1,  -1,  -10,  -27,  -38
3534118, 1710336767, "2024/3/13 13:32:47",  1,  -59,  1001,  0,  0,  0,  -10,  -27,  -37
3534318, 1710336767, "2024/3/13 13:32:47",  5,  -54,  1000,  0,  -1,  -1,  -10,  -27,  -36
3534518, 1710336767, "2024/3/13 13:32:47",  10,  -56,  1000,  0,  0,  0,  -10,  -25,  -37
3534718, 1710336767, "2024/3/13 13:32:47",  5,  -58,  1002,  0,  0,  -1,  -10,  -26,  -36
3534918, 1710336768, "2024/3/13 13:32:48",  -4,  -49,  1002,  0,  0,  -1,  -11,  -25,  -35
3535118, 1710336768, "2024/3/13 13:32:48",  0,  -57,  1003,  0,  0,  -1,  -9,  -27,  -36
3535318, 1710336768, "2024/3/13 13:32:48",  9,  -62,  1004,  0,  0,  -1,  -10,  -26,  -37
3535518, 1710336768, "2024/3/13 13:32:48",  1,  -57,  1002,  0,  0,  -1,  -10,  -27,  -36
3535718, 1710336768, "2024/3/13 13:32:48",  4,  -61,  1003,  0,  0,  -1,  -11,  -27,  -36
3535918, 1710336769, "2024/3/13 13:32:49",  4,  -65,  1002,  0,  0,  -1,  -10,  -26,  -38
3536118, 1710336769, "2024/3/13 13:32:49",  3,  -54,  1003,  0,  0,  -1,  -11,  -28,  -39
3536318, 1710336769, "2024/3/13 13:32:49",  7,  -59,  1006,  0,  0,  -1,  -10,  -27,  -36
3536518, 1710336769, "2024/3/13 13:32:49",  1,  -62,  1001,  0,  0,  0,  -9,  -26,  -36
3536718, 1710336769, "2024/3/13 13:32:49",  6,  -64,  995,  0,  -1,  0,  -11,  -27,  -36
3536918, 1710336770, "2024/3/13 13:32:50",  12,  -55,  1007,  0,  0,  -1,  -10,  -25,  -37
3537118, 1710336770, "2024/3/13 13:32:50",  6,  -56,  1008,  0,  -1,  -1,  -10,  -26,  -36
3537318, 1710336770, "2024/3/13 13:32:50",  4,  -58,  1001,  0,  0,  -1,  -11,  -27,  -37
3537518, 1710336770, "2024/3/13 13:32:50",  6,  -59,  1001,  0,  0,  -1,  -11,  -26,  -37
3537718, 1710336770, "2024/3/13 13:32:50",  3,  -56,  1000,  0,  0,  0,  -11,  -28,  -36
3537918, 1710336771, "2024/3/13 13:32:51",  10,  -55,  1006,  0,  0,  -1,  -10,  -26,  -37
3538118, 1710336771, "2024/3/13 13:32:51",  14,  -64,  1006,  0,  0,  0,  -10,  -25,  -37
3538318, 1710336771, "2024/3/13 13:32:51",  12,  -53,  1000,  0,  0,  -1,  -11,  -27,  -36
3538518, 1710336771, "2024/3/13 13:32:51",  8,  -59,  1005,  0,  0,  -1,  -11,  -27,  -36
3538718, 1710336771, "2024/3/13 13:32:51",  10,  -63,  1002,  0,  0,  -1,  -11,  -27,  -36
3538918, 1710336772, "2024/3/13 13:32:52",  9,  -54,  1004,  0,  0,  -1,  -11,  -27,  -36
3539118, 1710336772, "2024/3/13 13:32:52",  10,  -62,  1000,  0,  0,  0,  -11,  -25,  -38
3539318, 1710336772, "2024/3/13 13:32:52",  9,  -64,  1003,  0,  0,  0,  -11,  -25,  -36
3539518, 1710336772, "2024/3/13 13:32:52",  4,  -58,  1001,  0,  0,  -1,  -10,  -27,  -36
3539718, 1710336772, "2024/3/13 13:32:52",  7,  -50,  1002,  0,  0,  -1,  -11,  -27,  -37
3539918, 1710336773, "2024/3/13 13:32:53",  0,  -55,  1005,  0,  0,  -1,  -10,  -26,  -37
3540118, 1710336773, "2024/3/13 13:32:53",  10,  -61,  1005,  0,  -1,  -1,  -11,  -25,  -37
3540318, 1710336773, "2024/3/13 13:32:53",  4,  -59,  1001,  0,  0,  -1,  -10,  -27,  -36
3540518, 1710336773, "2024/3/13 13:32:53",  14,  -64,  1008,  0,  0,  0,  -9,  -27,  -37
3540718, 1710336773, "2024/3/13 13:32:53",  -1,  -58,  1000,  0,  0,  0,  -11,  -28,  -36
3540918, 1710336774, "2024/3/13 13:32:54",  9,  -62,  1007,  0,  -1,  -1,  -10,  -26,  -36
3541118, 1710336774, "2024/3/13 13:32:54",  2,  -55,  1006,  0,  0,  -1,  -10,  -25,  -37
3541318, 1710336774, "2024/3/13 13:32:54",  2,  -47,  1001,  0,  -1,  -1,  -9,  -26,  -36
3541518, 1710336774, "2024/3/13 13:32:54",  2,  -59,  1003,  0,  0,  0,  -11,  -25,  -36
3541718, 1710336774, "2024/3/13 13:32:54",  11,  -62,  1004,  0,  0,  0,  -11,  -27,  -37
3541918, 1710336775, "2024/3/13 13:32:55",  9,  -68,  1008,  0,  0,  -1,  -11,  -27,  -36
3542118, 1710336775, "2024/3/13 13:32:55",  9,  -60,  999,  0,  0,  -1,  -10,  -27,  -37
3542318, 1710336775, "2024/3/13 13:32:55",  5,  -60,  999,  0,  0,  -1,  -11,  -27,  -36
3542518, 1710336775, "2024/3/13 13:32:55",  5,  -60,  1004,  0,  0,  0,  -10,  -27,  -38
3542718, 1710336775, "2024/3/13 13:32:55",  7,  -58,  1004,  0,  0,  0,  -9,  -26,  -36
3542918, 1710336776, "2024/3/13 13:32:56",  2,  -85,  1002,  1,  0,  -1,  -11,  -26,  -37
3543118, 1710336776, "2024/3/13 13:32:56",  8,  -72,  1003,  0,  0,  0,  -11,  -27,  -37
3543318, 1710336776, "2024/3/13 13:32:56",  3,  -63,  1005,  0,  0,  0,  -11,  -26,  -37
3543518, 1710336776, "2024/3/13 13:32:56",  11,  -55,  1004,  0,  0,  0,  -11,  -25,  -37
3543718, 1710336776, "2024/3/13 13:32:56",  9,  -60,  1000,  0,  -1,  -1,  -12,  -26,  -36
3543918, 1710336777, "2024/3/13 13:32:57",  9,  -60,  997,  0,  -1,  -1,  -10,  -27,  -35
3544118, 1710336777, "2024/3/13 13:32:57",  2,  -62,  1006,  0,  0,  -1,  -10,  -27,  -35
3544318, 1710336777, "2024/3/13 13:32:57",  5,  -54,  1003,  0,  0,  -1,  -11,  -27,  -39
3544518, 1710336777, "2024/3/13 13:32:57",  7,  -52,  1003,  0,  0,  0,  -12,  -27,  -36
3544718, 1710336777, "2024/3/13 13:32:57",  7,  -62,  1006,  0,  0,  -1,  -11,  -27,  -36
3544918, 1710336778, "2024/3/13 13:32:58",  6,  -64,  1001,  0,  -1,  -1,  -11,  -27,  -37
3545118, 1710336778, "2024/3/13 13:32:58",  7,  -55,  1002,  0,  0,  -1,  -11,  -27,  -36
3545318, 1710336778, "2024/3/13 13:32:58",  3,  -61,  1005,  0,  -1,  0,  -10,  -27,  -36
3545518, 1710336778, "2024/3/13 13:32:58",  4,  -62,  1001,  0,  0,  -1,  -11,  -26,  -36
3545718, 1710336778, "2024/3/13 13:32:58",  8,  -60,  1003,  0,  0,  0,  -12,  -24,  -36
3545918, 1710336779, "2024/3/13 13:32:59",  -4,  -53,  1004,  0,  -1,  0,  -11,  -25,  -37
3546118, 1710336779, "2024/3/13 13:32:59",  0,  -57,  1003,  0,  -1,  -1,  -10,  -25,  -35
3546318, 1710336779, "2024/3/13 13:32:59",  8,  -61,  1002,  0,  -1,  0,  -11,  -28,  -36
3546518, 1710336779, "2024/3/13 13:32:59",  7,  -63,  1004,  0,  -1,  -1,  -12,  -27,  -36
3546718, 1710336779, "2024/3/13 13:32:59",  8,  -65,  1021,  0,  0,  -1,  -11,  -25,  -36
3546918, 1710336780, "2024/3/13 13:33:0",  4,  -61,  1002,  0,  0,  -1,  -10,  -26,  -37
3547118, 1710336780, "2024/3/13 13:33:0",  1,  -50,  1001,  0,  0,  -1,  -9,  -24,  -37
3547318, 1710336780, "2024/3/13 13:33:0",  -2,  -51,  1005,  0,  0,  0,  -11,  -27,  -37
3547518, 1710336780, "2024/3/13 13:33:0",  7,  -64,  1004,  0,  0,  -1,  -10,  -26,  -37
3547718, 1710336780, "2024/3/13 13:33:0",  2,  -60,  1001,  0,  -1,  0,  -10,  -27,  -35
3547918, 1710336781, "2024/3/13 13:33:1",  4,  -60,  1006,  0,  0,  0,  -11,  -25,  -36
3548118, 1710336781, "2024/3/13 13:33:1",  4,  -51,  1001,  0,  -1,  0,  -10,  -26,  -37
3548318, 1710336781, "2024/3/13 13:33:1",  3,  -61,  1006,  0,  0,  -1,  -11,  -27,  -38
3548518, 1710336781, "2024/3/13 13:33:1",  2,  -57,  1005,  0,  0,  0,  -10,  -25,  -38
3548718, 1710336781, "2024/3/13 13:33:1",  3,  -58,  1003,  0,  0,  0,  -10,  -25,  -37
3548918, 1710336782, "2024/3/13 13:33:2",  11,  -55,  1011,  0,  0,  -1,  -9,  -26,  -36
3549118, 1710336782, "2024/3/13 13:33:2",  1,  -55,  1004,  0,  0,  0,  -12,  -27,  -36
3549318, 1710336782, "2024/3/13 13:33:2",  19,  -72,  1033,  0,  0,  -1,  -10,  -27,  -36
3549518, 1710336782, "2024/3/13 13:33:2",  16,  -61,  999,  0,  -1,  -1,  -12,  -27,  -36
3549718, 1710336782, "2024/3/13 13:33:2",  8,  -60,  1006,  0,  -1,  -1,  -12,  -27,  -39
3549918, 1710336783, "2024/3/13 13:33:3",  4,  -50,  1009,  0,  0,  0,  -10,  -27,  -36
3550118, 1710336783, "2024/3/13 13:33:3",  3,  -59,  1001,  0,  0,  -1,  -11,  -27,  -35
3550318, 1710336783, "2024/3/13 13:33:3",  6,  -60,  1001,  0,  -1,  0,  -10,  -26,  -38
3550518, 1710336783, "2024/3/13 13:33:3",  7,  -61,  1005,  0,  -1,  -1,  -10,  -27,  -36
3550718, 1710336783, "2024/3/13 13:33:3",  7,  -60,  1002,  0,  0,  -1,  -11,  -28,  -36
3550918, 1710336784, "2024/3/13 13:33:4",  11,  -61,  1003,  0,  0,  -1,  -9,  -26,  -36
3551118, 1710336784, "2024/3/13 13:33:4",  5,  -58,  1001,  0,  0,  -1,  -10,  -27,  -35
3551318, 1710336784, "2024/3/13 13:33:4",  6,  -55,  1002,  0,  0,  0,  -11,  -27,  -36
3551518, 1710336784, "2024/3/13 13:33:4",  1,  -57,  1005,  0,  0,  -1,  -12,  -27,  -36
3551718, 1710336784, "2024/3/13 13:33:4",  -3,  -56,  1003,  0,  -1,  -1,  -11,  -25,  -36
3551918, 1710336785, "2024/3/13 13:33:5",  4,  -64,  1005,  0,  0,  -1,  -12,  -28,  -37
3552118, 1710336785, "2024/3/13 13:33:5",  5,  -62,  1003,  0,  -1,  -1,  -11,  -27,  -37
3552318, 1710336785, "2024/3/13 13:33:5",  5,  -58,  1000,  0,  0,  0,  -10,  -26,  -36
3552518, 1710336785, "2024/3/13 13:33:5",  6,  -57,  1009,  0,  0,  -1,  -11,  -27,  -36
3552718, 1710336785, "2024/3/13 13:33:5",  5,  -57,  1002,  0,  0,  0,  -9,  -27,  -36
3552918, 1710336786, "2024/3/13 13:33:6",  4,  -52,  1003,  0,  -1,  -1,  -11,  -27,  -37
3553118, 1710336786, "2024/3/13 13:33:6",  6,  -62,  1009,  0,  0,  0,  -11,  -25,  -36
3553318, 1710336786, "2024/3/13 13:33:6",  1,  -59,  1004,  1,  -1,  0,  -11,  -27,  -37
3553518, 1710336786, "2024/3/13 13:33:6",  5,  -55,  1006,  1,  0,  -1,  -11,  -26,  -35
3553718, 1710336786, "2024/3/13 13:33:6",  0,  -62,  1004,  0,  0,  0,  -11,  -27,  -36
3553918, 1710336787, "2024/3/13 13:33:7",  6,  -64,  1006,  0,  0,  0,  -11,  -28,  -37
3554118, 1710336787, "2024/3/13 13:33:7",  5,  -53,  1003,  0,  0,  0,  -12,  -26,  -36
3554318, 1710336787, "2024/3/13 13:33:7",  10,  -61,  1002,  0,  0,  0,  -10,  -27,  -37
3554518, 1710336787, "2024/3/13 13:33:7",  6,  -60,  1001,  0,  0,  -1,  -11,  -27,  -36
3554718, 1710336787, "2024/3/13 13:33:7",  7,  -53,  1004,  0,  0,  -1,  -11,  -24,  -36
3554918, 1710336788, "2024/3/13 13:33:8",  1,  -62,  1002,  0,  0,  -1,  -10,  -26,  -36
3555118, 1710336788, "2024/3/13 13:33:8",  9,  -55,  1003,  0,  0,  -1,  -11,  -27,  -37
3555318, 1710336788, "2024/3/13 13:33:8",  4,  -62,  1004,  0,  0,  -1,  -11,  -27,  -36
3555518, 1710336788, "2024/3/13 13:33:8",  9,  -56,  1003,  0,  0,  0,  -9,  -26,  -34
3555718, 1710336788, "2024/3/13 13:33:8",  7,  -58,  1002,  0,  0,  -1,  -11,  -28,  -37
3555918, 1710336789, "2024/3/13 13:33:9",  6,  -50,  1008,  0,  0,  0,  -10,  -27,  -36
3556118, 1710336789, "2024/3/13 13:33:9",  5,  -58,  1003,  0,  0,  -1,  -11,  -27,  -37
3556318, 1710336789, "2024/3/13 13:33:9",  6,  -55,  1003,  0,  0,  -1,  -11,  -27,  -37
3556518, 1710336789, "2024/3/13 13:33:9",  5,  -59,  1004,  0,  0,  -1,  -10,  -27,  -36
3556718, 1710336789, "2024/3/13 13:33:9",  -1,  -56,  1003,  0,  0,  0,  -12,  -26,  -37
3556918, 1710336790, "2024/3/13 13:33:10",  15,  -56,  1001,  0,  0,  0,  -11,  -25,  -36
3557118, 1710336790, "2024/3/13 13:33:10",  15,  -54,  1006,  0,  0,  0,  -12,  -26,  -36
3557318, 1710336790, "2024/3/13 13:33:10",  8,  -62,  998,  0,  -1,  -1,  -11,  -27,  -38
3557518, 1710336790, "2024/3/13 13:33:10",  6,  -62,  1005,  0,  0,  0,  -11,  -28,  -35
3557718, 1710336790, "2024/3/13 13:33:10",  5,  -57,  1004,  0,  0,  -1,  -11,  -26,  -37
3557918, 1710336791, "2024/3/13 13:33:11",  3,  -56,  1003,  0,  0,  -1,  -11,  -27,  -35
3558118, 1710336791, "2024/3/13 13:33:11",  4,  -56,  1002,  0,  0,  0,  -11,  -27,  -36
3558318, 1710336791, "2024/3/13 13:33:11",  4,  -61,  997,  0,  0,  -1,  -11,  -27,  -37
3558518, 1710336791, "2024/3/13 13:33:11",  8,  -63,  1005,  0,  -1,  -1,  -10,  -25,  -36
3558718, 1710336791, "2024/3/13 13:33:11",  6,  -64,  1005,  0,  0,  -1,  -11,  -27,  -37
3558918, 1710336792, "2024/3/13 13:33:12",  7,  -62,  1003,  0,  0,  -1,  -11,  -27,  -36
3559118, 1710336792, "2024/3/13 13:33:12",  2,  -58,  1002,  0,  0,  -1,  -10,  -25,  -36
3559318, 1710336792, "2024/3/13 13:33:12",  9,  -60,  1002,  0,  -1,  -1,  -10,  -25,  -38
3559518, 1710336792, "2024/3/13 13:33:12",  6,  -52,  1000,  0,  0,  0,  -11,  -26,  -36
3559718, 1710336792, "2024/3/13 13:33:12",  11,  -55,  1004,  0,  0,  0,  -10,  -27,  -36
3559918, 1710336793, "2024/3/13 13:33:13",  6,  -60,  1000,  0,  -1,  -1,  -9,  -26,  -36
3560118, 1710336793, "2024/3/13 13:33:13",  5,  -63,  1000,  0,  0,  -1,  -10,  -26,  -37
3560318, 1710336793, "2024/3/13 13:33:13",  4,  -57,  1002,  0,  0,  -1,  -11,  -27,  -36
3560518, 1710336793, "2024/3/13 13:33:13",  3,  -55,  1001,  0,  0,  0,  -10,  -25,  -36
3560718, 1710336793, "2024/3/13 13:33:13",  4,  -64,  1002,  0,  0,  0,  -11,  -25,  -37
3560918, 1710336794, "2024/3/13 13:33:14",  10,  -61,  1000,  0,  0,  -1,  -9,  -26,  -36
3561118, 1710336794, "2024/3/13 13:33:14",  2,  -63,  1004,  0,  -1,  -1,  -9,  -25,  -36
3561318, 1710336794, "2024/3/13 13:33:14",  7,  -61,  1002,  0,  0,  -1,  -12,  -26,  -38
3561518, 1710336794, "2024/3/13 13:33:14",  6,  -64,  1001,  0,  0,  -1,  -12,  -26,  -36
3561718, 1710336794, "2024/3/13 13:33:14",  4,  -63,  1010,  0,  0,  -1,  -11,  -26,  -36
3561918, 1710336795, "2024/3/13 13:33:15",  3,  -57,  1000,  0,  0,  0,  -11,  -27,  -37
3562118, 1710336795, "2024/3/13 13:33:15",  6,  -60,  1001,  0,  0,  -1,  -11,  -27,  -38
3562318, 1710336795, "2024/3/13 13:33:15",  11,  -42,  1016,  0,  0,  -1,  -11,  -25,  -36
3562518, 1710336795, "2024/3/13 13:33:15",  4,  -53,  1000,  0,  0,  -1,  -10,  -26,  -36
3562718, 1710336795, "2024/3/13 13:33:15",  8,  -58,  1002,  0,  0,  -1,  -10,  -26,  -37
3562918, 1710336796, "2024/3/13 13:33:16",  2,  -58,  999,  0,  0,  -1,  -11,  -27,  -37
3563118, 1710336796, "2024/3/13 13:33:16",  7,  -67,  1007,  0,  0,  -1,  -10,  -27,  -36
3563318, 1710336796, "2024/3/13 13:33:16",  9,  -67,  1004,  0,  0,  -1,  -11,  -26,  -38
3563518, 1710336796, "2024/3/13 13:33:16",  7,  -57,  999,  0,  0,  0,  -10,  -27,  -36
3563718, 1710336796, "2024/3/13 13:33:16",  2,  -58,  1001,  0,  0,  -1,  -11,  -25,  -37
3563918, 1710336797, "2024/3/13 13:33:17",  3,  -62,  1003,  0,  0,  -1,  -10,  -27,  -37
3564118, 1710336797, "2024/3/13 13:33:17",  7,  -64,  1002,  0,  0,  -1,  -11,  -27,  -36
3564318, 1710336797, "2024/3/13 13:33:17",  3,  -58,  1006,  0,  0,  0,  -11,  -26,  -36
3564518, 1710336797, "2024/3/13 13:33:17",  -3,  -54,  995,  0,  0,  0,  -11,  -26,  -36
3564718, 1710336797, "2024/3/13 13:33:17",  4,  -60,  1007,  0,  0,  -1,  -10,  -27,  -35
3564918, 1710336798, "2024/3/13 13:33:18",  0,  -58,  1003,  0,  0,  0,  -11,  -25,  -37
3565118, 1710336798, "2024/3/13 13:33:18",  8,  -56,  1004,  0,  0,  0,  -11,  -27,  -37
3565318, 1710336798, "2024/3/13 13:33:18",  4,  -57,  1003,  0,  0,  -1,  -9,  -27,  -37
3565518, 1710336798, "2024/3/13 13:33:18",  8,  -59,  1002,  0,  0,  -1,  -10,  -26,  -36
3565718, 1710336798, "2024/3/13 13:33:18",  11,  -63,  1005,  0,  0,  -1,  -10,  -27,  -36
3565918, 1710336799, "2024/3/13 13:33:19",  4,  -59,  1001,  0,  0,  -1,  -11,  -27,  -36
3566118, 1710336799, "2024/3/13 13:33:19",  5,  -55,  1003,  0,  0,  -1,  -12,  -25,  -36
3566318, 1710336799, "2024/3/13 13:33:19",  6,  -62,  1007,  0,  0,  0,  -11,  -27,  -35
3566518, 1710336799, "2024/3/13 13:33:19",  5,  -60,  1002,  0,  -1,  -1,  -11,  -26,  -37
3566718, 1710336799, "2024/3/13 13:33:19",  6,  -55,  1005,  0,  0,  -1,  -9,  -28,  -37
3566918, 1710336800, "2024/3/13 13:33:20",  5,  -51,  1002,  0,  0,  -1,  -10,  -27,  -37
3567118, 1710336800, "2024/3/13 13:33:20",  2,  -62,  1005,  0,  0,  0,  -11,  -25,  -37
3567318, 1710336800, "2024/3/13 13:33:20",  5,  -59,  1001,  0,  0,  0,  -10,  -26,  -36
3567518, 1710336800, "2024/3/13 13:33:20",  3,  -54,  1004,  0,  0,  0,  -9,  -27,  -35
3567718, 1710336800, "2024/3/13 13:33:20",  3,  -63,  1004,  0,  -1,  -1,  -9,  -26,  -36
3567918, 1710336801, "2024/3/13 13:33:21",  -3,  -48,  1000,  0,  -1,  -1,  -11,  -25,  -37
3568118, 1710336801, "2024/3/13 13:33:21",  -1,  -61,  1001,  0,  0,  -1,  -9,  -26,  -34
3568318, 1710336801, "2024/3/13 13:33:21",  1,  -56,  1002,  0,  0,  0,  -11,  -27,  -36
3568518, 1710336801, "2024/3/13 13:33:21",  5,  -58,  1003,  0,  0,  0,  -11,  -27,  -36
3568718, 1710336801, "2024/3/13 13:33:21",  5,  -61,  1003,  0,  0,  -1,  -9,  -27,  -37
3568918, 1710336802, "2024/3/13 13:33:22",  7,  -54,  1003,  0,  0,  -1,  -10,  -27,  -36
3569118, 1710336802, "2024/3/13 13:33:22",  7,  -67,  1002,  0,  0,  0,  -9,  -27,  -37
3569318, 1710336802, "2024/3/13 13:33:22",  11,  -55,  1005,  0,  -1,  -1,  -10,  -27,  -36
3569518, 1710336802, "2024/3/13 13:33:22",  9,  -56,  1003,  0,  0,  -1,  -9,  -27,  -36
3569718, 1710336802, "2024/3/13 13:33:22",  9,  -53,  1005,  0,  0,  -1,  -11,  -29,  -35
3569918, 1710336803, "2024/3/13 13:33:23",  10,  -56,  1002,  0,  0,  0,  -10,  -27,  -36
3570118, 1710336803, "2024/3/13 13:33:23",  2,  -53,  1001,  0,  0,  0,  -9,  -27,  -36
3570318, 1710336803, "2024/3/13 13:33:23",  9,  -62,  1003,  0,  0,  0,  -11,  -26,  -35
3570518, 1710336803, "2024/3/13 13:33:23",  9,  -64,  1004,  0,  -1,  -1,  -10,  -27,  -36
3570718, 1710336803, "2024/3/13 13:33:23",  7,  -60,  1001,  0,  0,  -1,  -11,  -27,  -34
3570918, 1710336804, "2024/3/13 13:33:24",  2,  -60,  1000,  0,  0,  -1,  -12,  -26,  -35
3571118, 1710336804, "2024/3/13 13:33:24",  4,  -58,  1005,  0,  0,  0,  -11,  -28,  -34
3571318, 1710336804, "2024/3/13 13:33:24",  5,  -58,  1003,  0,  0,  -1,  -12,  -26,  -37
3571518, 1710336804, "2024/3/13 13:33:24",  0,  -59,  1003,  0,  0,  -1,  -9,  -25,  -36
3571718, 1710336804, "2024/3/13 13:33:24",  6,  -59,  1004,  0,  -1,  -1,  -11,  -27,  -36
3571918, 1710336805, "2024/3/13 13:33:25",  10,  -61,  1003,  0,  0,  0,  -11,  -27,  -36
3572118, 1710336805, "2024/3/13 13:33:25",  4,  -59,  1002,  0,  0,  -1,  -9,  -26,  -36
3572318, 1710336805, "2024/3/13 13:33:25",  6,  -57,  1002,  0,  0,  -1,  -10,  -28,  -36
3572518, 1710336805, "2024/3/13 13:33:25",  5,  -56,  1001,  0,  0,  -1,  -11,  -27,  -37
3572718, 1710336805, "2024/3/13 13:33:25",  6,  -57,  1003,  0,  0,  0,  -11,  -26,  -36
3572918, 1710336806, "2024/3/13 13:33:26",  2,  -57,  1004,  0,  0,  -1,  -10,  -27,  -37
3573118, 1710336806, "2024/3/13 13:33:26",  6,  -60,  1005,  0,  0,  -1,  -10,  -26,  -36
3573318, 1710336806, "2024/3/13 13:33:26",  4,  -58,  1002,  0,  0,  -1,  -10,  -27,  -36
3573518, 1710336806, "2024/3/13 13:33:26",  3,  -60,  1005,  0,  -1,  0,  -11,  -26,  -37
3573718, 1710336806, "2024/3/13 13:33:26",  6,  -65,  1004,  0,  0,  0,  -12,  -26,  -36
3573918, 1710336807, "2024/3/13 13:33:27",  8,  -56,  1004,  0,  0,  0,  -9,  -28,  -36
3574118, 1710336807, "2024/3/13 13:33:27",  4,  -56,  1004,  0,  0,  0,  -11,  -25,  -36
3574318, 1710336807, "2024/3/13 13:33:27",  8,  -57,  1004,  0,  -1,  -1,  -10,  -27,  -36
3574518, 1710336807, "2024/3/13 13:33:27",  5,  -63,  1005,  0,  0,  0,  -11,  -26,  -36
3574718, 1710336807, "2024/3/13 13:33:27",  6,  -59,  1004,  0,  -1,  -1,  -11,  -27,  -36
3574918, 1710336808, "2024/3/13 13:33:28",  9,  -66,  1004,  0,  0,  -1,  -11,  -25,  -37
3575118, 1710336808, "2024/3/13 13:33:28",  8,  -60,  1001,  0,  0,  -1,  -12,  -26,  -36
3575318, 1710336808, "2024/3/13 13:33:28",  11,  -58,  1004,  0,  0,  0,  -11,  -27,  -37
3575518, 1710336808, "2024/3/13 13:33:28",  9,  -59,  1002,  0,  0,  0,  -10,  -27,  -35
3575718, 1710336808, "2024/3/13 13:33:28",  8,  -57,  1000,  0,  0,  -1,  -10,  -27,  -35
3575918, 1710336809, "2024/3/13 13:33:29",  4,  -55,  1004,  0,  -1,  -1,  -10,  -27,  -35
3576118, 1710336809, "2024/3/13 13:33:29",  9,  -58,  1003,  0,  0,  0,  -10,  -26,  -36
3576318, 1710336809, "2024/3/13 13:33:29",  8,  -64,  1005,  0,  0,  -1,  -11,  -26,  -36
3576518, 1710336809, "2024/3/13 13:33:29",  7,  -61,  1002,  0,  0,  0,  -12,  -27,  -36
3576718, 1710336809, "2024/3/13 13:33:29",  4,  -57,  1005,  0,  0,  0,  -11,  -27,  -36
3576918, 1710336810, "2024/3/13 13:33:30",  8,  -54,  1005,  0,  0,  -1,  -11,  -28,  -35
3577118, 1710336810, "2024/3/13 13:33:30",  2,  -58,  1002,  0,  -1,  0,  -10,  -26,  -36
3577318, 1710336810, "2024/3/13 13:33:30",  7,  -58,  1003,  0,  0,  -1,  -10,  -28,  -37
3577518, 1710336810, "2024/3/13 13:33:30",  6,  -60,  1004,  0,  0,  -1,  -11,  -26,  -36
3577718, 1710336810, "2024/3/13 13:33:30",  6,  -60,  1007,  0,  0,  -1,  -11,  -25,  -36
3577918, 1710336811, "2024/3/13 13:33:31",  2,  -54,  1000,  0,  0,  0,  -11,  -29,  -35
3578118, 1710336811, "2024/3/13 13:33:31",  6,  -62,  1003,  0,  -1,  -1,  -11,  -26,  -36
3578318, 1710336811, "2024/3/13 13:33:31",  0,  -59,  1001,  0,  0,  0,  -12,  -27,  -35
3578518, 1710336811, "2024/3/13 13:33:31",  3,  -57,  1001,  0,  -1,  -1,  -11,  -26,  -36
3578718, 1710336811, "2024/3/13 13:33:31",  6,  -53,  1002,  0,  0,  0,  -11,  -27,  -35
3578918, 1710336812, "2024/3/13 13:33:32",  9,  -58,  1003,  0,  -1,  -1,  -12,  -28,  -35
3579118, 1710336812, "2024/3/13 13:33:32",  5,  -58,  1002,  0,  0,  -1,  -10,  -26,  -36
3579318, 1710336812, "2024/3/13 13:33:32",  4,  -61,  1003,  0,  0,  -1,  -10,  -27,  -36
3579518, 1710336812, "2024/3/13 13:33:32",  8,  -61,  1002,  0,  0,  0,  -11,  -27,  -37
3579718, 1710336812, "2024/3/13 13:33:32",  7,  -58,  1001,  0,  0,  0,  -10,  -27,  -35
3579918, 1710336813, "2024/3/13 13:33:33",  8,  -61,  1003,  0,  -1,  -1,  -12,  -25,  -36
3580118, 1710336813, "2024/3/13 13:33:33",  8,  -58,  1003,  0,  0,  0,  -11,  -28,  -36
3580318, 1710336813, "2024/3/13 13:33:33",  8,  -59,  1000,  0,  0,  -1,  -10,  -26,  -36
3580518, 1710336813, "2024/3/13 13:33:33",  10,  -55,  1000,  0,  0,  0,  -11,  -26,  -36
3580718, 1710336813, "2024/3/13 13:33:33",  2,  -55,  1005,  0,  0,  -1,  -9,  -26,  -36
3580918, 1710336814, "2024/3/13 13:33:34",  7,  -58,  1000,  0,  0,  -1,  -10,  -26,  -37
3581118, 1710336814, "2024/3/13 13:33:34",  1,  -56,  1005,  0,  0,  -1,  -11,  -27,  -36
3581318, 1710336814, "2024/3/13 13:33:34",  5,  -65,  1003,  0,  0,  -1,  -12,  -27,  -37
3581518, 1710336814, "2024/3/13 13:33:34",  4,  -62,  1003,  0,  0,  -1,  -10,  -28,  -36
3581718, 1710336814, "2024/3/13 13:33:34",  7,  -59,  1002,  0,  -1,  0,  -11,  -26,  -36
3581918, 1710336815, "2024/3/13 13:33:35",  3,  -65,  1005,  0,  0,  -1,  -10,  -27,  -37
3582118, 1710336815, "2024/3/13 13:33:35",  5,  -64,  999,  0,  0,  0,  -11,  -27,  -35
3582318, 1710336815, "2024/3/13 13:33:35",  8,  -59,  1002,  0,  0,  0,  -11,  -26,  -36
3582518, 1710336815, "2024/3/13 13:33:35",  2,  -58,  1003,  0,  0,  -1,  -11,  -27,  -36
3582718, 1710336815, "2024/3/13 13:33:35",  4,  -61,  1001,  0,  0,  -1,  -12,  -26,  -37
3582918, 1710336816, "2024/3/13 13:33:36",  0,  -58,  1008,  0,  0,  0,  -10,  -25,  -36
3583118, 1710336816, "2024/3/13 13:33:36",  8,  -54,  1003,  0,  0,  -1,  -12,  -26,  -37
3583318, 1710336816, "2024/3/13 13:33:36",  7,  -58,  1004,  0,  0,  0,  -12,  -27,  -36
3583518, 1710336816, "2024/3/13 13:33:36",  6,  -59,  1005,  0,  0,  0,  -10,  -26,  -36
3583718, 1710336816, "2024/3/13 13:33:36",  4,  -60,  1009,  0,  0,  -1,  -10,  -27,  -36
3583918, 1710336817, "2024/3/13 13:33:37",  1,  -61,  1001,  0,  0,  0,  -10,  -27,  -35
3584118, 1710336817, "2024/3/13 13:33:37",  8,  -58,  1005,  0,  0,  -1,  -11,  -28,  -36
3584318, 1710336817, "2024/3/13 13:33:37",  4,  -59,  1004,  0,  0,  -1,  -11,  -26,  -37
3584518, 1710336817, "2024/3/13 13:33:37",  12,  -54,  1002,  0,  -1,  -1,  -9,  -27,  -36
3584718, 1710336817, "2024/3/13 13:33:37",  4,  -61,  1004,  0,  0,  -1,  -10,  -27,  -37
3584918, 1710336818, "2024/3/13 13:33:38",  2,  -62,  1001,  0,  0,  -1,  -11,  -28,  -36
3585118, 1710336818, "2024/3/13 13:33:38",  5,  -54,  1005,  0,  -1,  -1,  -11,  -26,  -35
3585318, 1710336818, "2024/3/13 13:33:38",  1,  -64,  1006,  0,  0,  -1,  -10,  -27,  -37
3585518, 1710336818, "2024/3/13 13:33:38",  4,  -62,  1002,  0,  0,  0,  -10,  -27,  -36
3585718, 1710336818, "2024/3/13 13:33:38",  9,  -59,  1005,  0,  0,  0,  -8,  -27,  -36
3585918, 1710336819, "2024/3/13 13:33:39",  3,  -58,  1002,  0,  0,  0,  -10,  -25,  -36
3586118, 1710336819, "2024/3/13 13:33:39",  3,  -61,  1002,  0,  0,  0,  -9,  -26,  -36
3586318, 1710336819, "2024/3/13 13:33:39",  3,  -57,  1005,  0,  0,  -1,  -11,  -26,  -35
3586518, 1710336819, "2024/3/13 13:33:39",  0,  -57,  1001,  0,  0,  -1,  -13,  -24,  -37
3586718, 1710336819, "2024/3/13 13:33:39",  4,  -63,  1002,  0,  0,  0,  -10,  -27,  -37
3586918, 1710336820, "2024/3/13 13:33:40",  4,  -63,  1004,  0,  0,  -1,  -10,  -28,  -36
3587118, 1710336820, "2024/3/13 13:33:40",  8,  -52,  1002,  0,  0,  -1,  -11,  -26,  -36
3587318, 1710336820, "2024/3/13 13:33:40",  8,  -59,  1003,  0,  0,  0,  -11,  -27,  -36
3587518, 1710336820, "2024/3/13 13:33:40",  6,  -66,  1006,  0,  0,  -1,  -10,  -27,  -36
3587718, 1710336820, "2024/3/13 13:33:40",  7,  -55,  1002,  0,  0,  -1,  -11,  -25,  -36
3587918, 1710336821, "2024/3/13 13:33:41",  3,  -59,  1000,  0,  0,  -1,  -10,  -27,  -37
3588118, 1710336821, "2024/3/13 13:33:41",  6,  -59,  1003,  0,  0,  0,  -11,  -27,  -36
3588318, 1710336821, "2024/3/13 13:33:41",  10,  -57,  1003,  0,  0,  0,  -10,  -27,  -37
3588518, 1710336821, "2024/3/13 13:33:41",  9,  -57,  1007,  0,  0,  0,  -13,  -27,  -36
3588718, 1710336821, "2024/3/13 13:33:41",  19,  -50,  1003,  0,  -1,  -1,  -10,  -27,  -36
3588918, 1710336822, "2024/3/13 13:33:42",  17,  -54,  1002,  0,  -1,  -1,  -11,  -27,  -36
3589118, 1710336822, "2024/3/13 13:33:42",  10,  -59,  1006,  0,  0,  -1,  -12,  -26,  -37
3589318, 1710336822, "2024/3/13 13:33:42",  13,  -61,  1003,  0,  0,  -1,  -11,  -28,  -36
3589518, 1710336822, "2024/3/13 13:33:42",  7,  -64,  999,  1,  0,  -1,  -11,  -26,  -37
3589718, 1710336822, "2024/3/13 13:33:42",  5,  -58,  1005,  0,  0,  0,  -10,  -26,  -34
3589918, 1710336823, "2024/3/13 13:33:43",  4,  -55,  1004,  0,  0,  -1,  -12,  -26,  -38
3590118, 1710336823, "2024/3/13 13:33:43",  3,  -58,  1002,  0,  0,  -1,  -10,  -26,  -36
3590318, 1710336823, "2024/3/13 13:33:43",  0,  -54,  1003,  0,  -1,  -1,  -11,  -25,  -34
3590518, 1710336823, "2024/3/13 13:33:43",  6,  -62,  1004,  0,  -1,  0,  -10,  -25,  -37
3590718, 1710336823, "2024/3/13 13:33:43",  5,  -59,  1002,  0,  0,  -1,  -12,  -27,  -36
3590918, 1710336824, "2024/3/13 13:33:44",  4,  -61,  999,  0,  0,  0,  -9,  -27,  -36
3591118, 1710336824, "2024/3/13 13:33:44",  5,  -59,  1002,  0,  0,  -1,  -11,  -27,  -37
3591318, 1710336824, "2024/3/13 13:33:44",  8,  -53,  1000,  0,  -1,  0,  -11,  -26,  -36
3591518, 1710336824, "2024/3/13 13:33:44",  9,  -56,  1002,  0,  0,  -1,  -10,  -27,  -36
3591718, 1710336824, "2024/3/13 13:33:44",  14,  -60,  1004,  0,  0,  -1,  -12,  -27,  -36
3591918, 1710336825, "2024/3/13 13:33:45",  5,  -62,  1003,  0,  -1,  -1,  -11,  -26,  -37
3592118, 1710336825, "2024/3/13 13:33:45",  11,  -58,  1005,  0,  0,  -1,  -11,  -28,  -36
3592318, 1710336825, "2024/3/13 13:33:45",  5,  -57,  1007,  0,  0,  -1,  -11,  -28,  -36
3592518, 1710336825, "2024/3/13 13:33:45",  8,  -60,  1005,  0,  0,  0,  -11,  -27,  -36
3592718, 1710336825, "2024/3/13 13:33:45",  7,  -59,  1004,  0,  0,  0,  -10,  -27,  -35
3592918, 1710336826, "2024/3/13 13:33:46",  7,  -59,  1002,  0,  0,  -1,  -10,  -28,  -36
3593118, 1710336826, "2024/3/13 13:33:46",  8,  -60,  1005,  0,  0,  0,  -12,  -28,  -36
3593318, 1710336826, "2024/3/13 13:33:46",  8,  -57,  1000,  0,  0,  -1,  -11,  -29,  -35
3593518, 1710336826, "2024/3/13 13:33:46",  5,  -57,  1001,  0,  0,  0,  -10,  -26,  -35
3593718, 1710336826, "2024/3/13 13:33:46",  6,  -55,  1007,  0,  0,  -1,  -10,  -27,  -35
3593918, 1710336827, "2024/3/13 13:33:47",  7,  -57,  1004,  0,  0,  -1,  -10,  -28,  -36
3594118, 1710336827, "2024/3/13 13:33:47",  9,  -60,  1001,  0,  0,  -1,  -11,  -28,  -36
3594318, 1710336827, "2024/3/13 13:33:47",  8,  -58,  1000,  0,  -1,  0,  -11,  -26,  -37
3594518, 1710336827, "2024/3/13 13:33:47",  7,  -61,  1001,  0,  -1,  -1,  -10,  -26,  -35
3594718, 1710336827, "2024/3/13 13:33:47",  3,  -60,  1005,  0,  0,  -1,  -10,  -26,  -35
3594918, 1710336828, "2024/3/13 13:33:48",  8,  -62,  1002,  0,  0,  -1,  -10,  -27,  -35
3595118, 1710336828, "2024/3/13 13:33:48",  4,  -62,  1004,  0,  0,  -1,  -12,  -25,  -37
3595318, 1710336828, "2024/3/13 13:33:48",  7,  -61,  1006,  0,  0,  -1,  -10,  -27,  -35
3595518, 1710336828, "2024/3/13 13:33:48",  9,  -52,  1002,  0,  0,  -1,  -12,  -25,  -36
3595718, 1710336828, "2024/3/13 13:33:48",  10,  -63,  1003,  0,  -1,  -1,  -11,  -27,  -36
3595918, 1710336829, "2024/3/13 13:33:49",  7,  -59,  1004,  0,  0,  -1,  -10,  -25,  -36
3596118, 1710336829, "2024/3/13 13:33:49",  4,  -57,  1002,  0,  0,  -1,  -9,  -27,  -36
3596318, 1710336829, "2024/3/13 13:33:49",  5,  -61,  1002,  0,  0,  -1,  -10,  -26,  -36
3596518, 1710336829, "2024/3/13 13:33:49",  6,  -58,  1002,  0,  0,  0,  -10,  -27,  -37
3596718, 1710336829, "2024/3/13 13:33:49",  6,  -60,  1000,  0,  0,  -1,  -12,  -28,  -36
3596918, 1710336830, "2024/3/13 13:33:50",  11,  -58,  1003,  0,  0,  0,  -10,  -27,  -36
3597118, 1710336830, "2024/3/13 13:33:50",  12,  -59,  1001,  0,  0,  -1,  -11,  -28,  -37
3597318, 1710336830, "2024/3/13 13:33:50",  14,  -60,  1002,  0,  0,  -1,  -10,  -28,  -36
3597518, 1710336830, "2024/3/13 13:33:50",  9,  -55,  1004,  0,  0,  -1,  -11,  -27,  -36
3597718, 1710336830, "2024/3/13 13:33:50",  7,  -60,  1003,  0,  0,  -1,  -12,  -26,  -36
3597918, 1710336831, "2024/3/13 13:33:51",  4,  -58,  1004,  0,  0,  -1,  -10,  -26,  -36
3598118, 1710336831, "2024/3/13 13:33:51",  7,  -60,  1001,  0,  0,  -1,  -11,  -27,  -37
3598318, 1710336831, "2024/3/13 13:33:51",  1,  -53,  1003,  0,  0,  0,  -11,  -25,  -34
3598518, 1710336831, "2024/3/13 13:33:51",  2,  -54,  1004,  0,  0,  -1,  -11,  -27,  -37
3598718, 1710336831, "2024/3/13 13:33:51",  1,  -55,  1000,  0,  0,  0,  -9,  -27,  -36
3598918, 1710336832, "2024/3/13 13:33:52",  -1,  -57,  1003,  0,  0,  0,  -12,  -27,  -35
3599118, 1710336832, "2024/3/13 13:33:52",  2,  -57,  1005,  0,  0,  0,  -10,  -25,  -36
3599318, 1710336832, "2024/3/13 13:33:52",  5,  -62,  1003,  0,  0,  0,  -11,  -28,  -36
3599518, 1710336832, "2024/3/13 13:33:52",  6,  -59,  1006,  0,  0,  -1,  -12,  -27,  -35
3599718, 1710336832, "2024/3/13 13:33:52",  8,  -64,  1004,  0,  -1,  -1,  -11,  -28,  -37
3599918, 1710336833, "2024/3/13 13:33:53",  6,  -56,  1005,  0,  0,  -1,  -11,  -26,  -36
3600118, 1710336833, "2024/3/13 13:33:53",  5,  -57,  1006,  0,  0,  -1,  -11,  -27,  -36
3600318, 1710336833, "2024/3/13 13:33:53",  7,  -63,  1004,  0,  0,  0,  -10,  -27,  -38
3600518, 1710336833, "2024/3/13 13:33:53",  6,  -59,  1006,  0,  0,  -1,  -11,  -26,  -36
3600718, 1710336833, "2024/3/13 13:33:53",  6,  -60,  1004,  0,  0,  0,  -10,  -28,  -36
3600918, 1710336834, "2024/3/13 13:33:54",  6,  -60,  1006,  0,  0,  -1,  -9,  -26,  -35
3601118, 1710336834, "2024/3/13 13:33:54",  7,  -59,  1002,  0,  0,  0,  -12,  -26,  -35
3601318, 1710336834, "2024/3/13 13:33:54",  4,  -63,  1003,  0,  0,  -1,  -12,  -26,  -36
3601518, 1710336834, "2024/3/13 13:33:54",  0,  -60,  998,  0,  0,  -1,  -11,  -27,  -35
3601718, 1710336834, "2024/3/13 13:33:54",  2,  -58,  1002,  0,  0,  -1,  -11,  -26,  -38
3601918, 1710336835, "2024/3/13 13:33:55",  12,  -56,  1001,  0,  0,  0,  -10,  -26,  -36
3602118, 1710336835, "2024/3/13 13:33:55",  5,  -61,  1004,  0,  0,  0,  -11,  -26,  -37
3602318, 1710336835, "2024/3/13 13:33:55",  4,  -61,  999,  0,  0,  -1,  -12,  -26,  -35
3602518, 1710336835, "2024/3/13 13:33:55",  8,  -52,  1004,  0,  0,  -1,  -9,  -28,  -35
3602718, 1710336835, "2024/3/13 13:33:55",  3,  -58,  1004,  0,  -1,  0,  -11,  -26,  -36
3602918, 1710336836, "2024/3/13 13:33:56",  7,  -57,  1002,  0,  0,  -1,  -11,  -26,  -36
3603118, 1710336836, "2024/3/13 13:33:56",  8,  -61,  1002,  0,  0,  0,  -10,  -27,  -34
3603318, 1710336836, "2024/3/13 13:33:56",  1,  -59,  1004,  0,  0,  -1,  -11,  -27,  -36
3603518, 1710336836, "2024/3/13 13:33:56",  9,  -58,  1002,  0,  -1,  0,  -12,  -26,  -36
3603718, 1710336836, "2024/3/13 13:33:56",  1,  -56,  1001,  0,  -1,  0,  -10,  -24,  -36
3603918, 1710336837, "2024/3/13 13:33:57",  9,  -61,  1003,  0,  0,  0,  -11,  -27,  -36
3604118, 1710336837, "2024/3/13 13:33:57",  7,  -56,  1003,  0,  0,  0,  -11,  -27,  -35
3604318, 1710336837, "2024/3/13 13:33:57",  3,  -59,  1005,  0,  0,  -1,  -10,  -27,  -36
3604518, 1710336837, "2024/3/13 13:33:57",  4,  -60,  1002,  0,  0,  -1,  -10,  -27,  -37
3604718, 1710336837, "2024/3/13 13:33:57",  9,  -58,  1002,  0,  0,  -1,  -11,  -26,  -37
3604918, 1710336838, "2024/3/13 13:33:58",  2,  -61,  1005,  0,  0,  0,  -11,  -25,  -37
3605118, 1710336838, "2024/3/13 13:33:58",  8,  -61,  1004,  0,  0,  0,  -9,  -26,  -36
3605318, 1710336838, "2024/3/13 13:33:58",  5,  -60,  1001,  0,  0,  -1,  -11,  -25,  -35
3605518, 1710336838, "2024/3/13 13:33:58",  7,  -58,  1004,  0,  0,  -1,  -11,  -27,  -36
3605718, 1710336838, "2024/3/13 13:33:58",  7,  -66,  1003,  0,  0,  -1,  -11,  -27,  -36
3605918, 1710336839, "2024/3/13 13:33:59",  10,  -64,  1001,  0,  0,  0,  -11,  -27,  -37
3606118, 1710336839, "2024/3/13 13:33:59",  11,  -54,  1003,  0,  0,  -1,  -11,  -26,  -37
3606318, 1710336839, "2024/3/13 13:33:59",  10,  -65,  1002,  0,  0,  -1,  -11,  -27,  -36
3606518, 1710336839, "2024/3/13 13:33:59",  12,  -66,  1002,  0,  -1,  -1,  -10,  -27,  -36
3606718, 1710336839, "2024/3/13 13:33:59",  9,  -55,  1004,  0,  -1,  0,  -10,  -27,  -36
3606918, 1710336840, "2024/3/13 13:34:0",  5,  -55,  1002,  0,  0,  -1,  -10,  -26,  -35
3607118, 1710336840, "2024/3/13 13:34:0",  5,  -58,  1006,  0,  0,  -1,  -10,  -26,  -37
3607318, 1710336840, "2024/3/13 13:34:0",  6,  -62,  1003,  0,  0,  0,  -10,  -27,  -36
3607518, 1710336840, "2024/3/13 13:34:0",  8,  -61,  1003,  0,  0,  0,  -11,  -27,  -36
3607718, 1710336840, "2024/3/13 13:34:0",  9,  -59,  1000,  0,  0,  -1,  -11,  -27,  -37
3607918, 1710336841, "2024/3/13 13:34:1",  6,  -61,  1002,  0,  0,  -1,  -11,  -26,  -36
3608118, 1710336841, "2024/3/13 13:34:1",  3,  -59,  1001,  0,  0,  0,  -10,  -27,  -37
3608318, 1710336841, "2024/3/13 13:34:1",  6,  -62,  1005,  0,  0,  0,  -10,  -27,  -36
3608518, 1710336841, "2024/3/13 13:34:1",  0,  -60,  1002,  0,  0,  0,  -13,  -26,  -35
3608718, 1710336841, "2024/3/13 13:34:1",  3,  -67,  1003,  0,  0,  -1,  -10,  -27,  -36
3608918, 1710336842, "2024/3/13 13:34:2",  6,  -58,  1002,  0,  0,  0,  -11,  -27,  -36
3609118, 1710336842, "2024/3/13 13:34:2",  3,  -54,  1000,  0,  0,  0,  -9,  -27,  -37
3609318, 1710336842, "2024/3/13 13:34:2",  8,  -59,  1007,  0,  0,  -1,  -11,  -27,  -36
3609518, 1710336842, "2024/3/13 13:34:2",  9,  -56,  1001,  0,  0,  -1,  -10,  -28,  -37
3609718, 1710336842, "2024/3/13 13:34:2",  10,  -60,  1002,  0,  0,  0,  -12,  -26,  -36
3609918, 1710336843, "2024/3/13 13:34:3",  9,  -62,  1002,  0,  -1,  -1,  -10,  -25,  -37
3610118, 1710336843, "2024/3/13 13:34:3",  4,  -62,  1005,  0,  0,  -1,  -11,  -26,  -35
3610318, 1710336843, "2024/3/13 13:34:3",  8,  -57,  1003,  0,  -1,  0,  -9,  -27,  -36
3610518, 1710336843, "2024/3/13 13:34:3",  7,  -58,  1000,  0,  -1,  -1,  -11,  -26,  -36
3610718, 1710336843, "2024/3/13 13:34:3",  7,  -61,  1003,  0,  0,  -1,  -11,  -26,  -37
3610918, 1710336844, "2024/3/13 13:34:4",  8,  -54,  1001,  0,  -1,  -1,  -10,  -27,  -36
3611118, 1710336844, "2024/3/13 13:34:4",  8,  -61,  1005,  0,  0,  0,  -10,  -27,  -37
3611318, 1710336844, "2024/3/13 13:34:4",  8,  -58,  1003,  0,  0,  -1,  -12,  -27,  -36
3611518, 1710336844, "2024/3/13 13:34:4",  6,  -58,  1003,  0,  0,  0,  -10,  -27,  -36
3611718, 1710336844, "2024/3/13 13:34:4",  4,  -58,  1002,  0,  0,  0,  -11,  -27,  -36
3611918, 1710336845, "2024/3/13 13:34:5",  7,  -59,  1007,  0,  0,  -1,  -12,  -26,  -37
3612118, 1710336845, "2024/3/13 13:34:5",  4,  -65,  1005,  0,  -1,  -1,  -10,  -27,  -37
3612318, 1710336845, "2024/3/13 13:34:5",  2,  -60,  1004,  0,  0,  -1,  -11,  -26,  -36
3612518, 1710336845, "2024/3/13 13:34:5",  9,  -61,  1004,  0,  0,  -1,  -11,  -26,  -36
3612718, 1710336845, "2024/3/13 13:34:5",  9,  -61,  1008,  0,  0,  -1,  -10,  -27,  -36
3612918, 1710336846, "2024/3/13 13:34:6",  1,  -59,  1001,  0,  0,  -1,  -11,  -25,  -37
3613118, 1710336846, "2024/3/13 13:34:6",  3,  -60,  1004,  0,  0,  -1,  -12,  -27,  -33
3613318, 1710336846, "2024/3/13 13:34:6",  7,  -64,  1002,  0,  0,  -1,  -12,  -27,  -37
3613518, 1710336846, "2024/3/13 13:34:6",  3,  -60,  1005,  0,  0,  -1,  -10,  -26,  -36
3613718, 1710336846, "2024/3/13 13:34:6",  7,  -52,  1003,  0,  0,  -1,  -11,  -27,  -35
3613918, 1710336847, "2024/3/13 13:34:7",  9,  -57,  1002,  0,  0,  -1,  -10,  -27,  -36
3614118, 1710336847, "2024/3/13 13:34:7",  4,  -59,  1005,  0,  0,  -1,  -11,  -27,  -36
3614318, 1710336847, "2024/3/13 13:34:7",  5,  -61,  1005,  0,  0,  0,  -11,  -27,  -35
3614518, 1710336847, "2024/3/13 13:34:7",  5,  -64,  1009,  0,  0,  0,  -11,  -26,  -36
3614718, 1710336847, "2024/3/13 13:34:7",  5,  -54,  1005,  0,  0,  0,  -10,  -25,  -36
3614918, 1710336848, "2024/3/13 13:34:8",  11,  -57,  1001,  0,  0,  0,  -10,  -27,  -36
3615118, 1710336848, "2024/3/13 13:34:8",  6,  -60,  1004,  0,  -1,  -1,  -13,  -27,  -38
3615318, 1710336848, "2024/3/13 13:34:8",  7,  -57,  1004,  0,  0,  0,  -10,  -26,  -35
3615518, 1710336848, "2024/3/13 13:34:8",  9,  -58,  1005,  0,  0,  -1,  -10,  -27,  -36
3615718, 1710336848, "2024/3/13 13:34:8",  6,  -57,  1002,  0,  0,  -1,  -11,  -27,  -36
3615918, 1710336849, "2024/3/13 13:34:9",  13,  -52,  1004,  0,  0,  -1,  -10,  -27,  -36
3616118, 1710336849, "2024/3/13 13:34:9",  11,  -57,  1006,  0,  -1,  -1,  -10,  -26,  -37
3616318, 1710336849, "2024/3/13 13:34:9",  10,  -59,  1003,  0,  0,  -1,  -10,  -28,  -35
3616518, 1710336849, "2024/3/13 13:34:9",  7,  -62,  1000,  0,  0,  -1,  -10,  -26,  -37
3616718, 1710336849, "2024/3/13 13:34:9",  6,  -64,  1003,  0,  0,  -1,  -10,  -25,  -36
3616918, 1710336850, "2024/3/13 13:34:10",  7,  -64,  1003,  0,  0,  0,  -11,  -28,  -35
3617118, 1710336850, "2024/3/13 13:34:10",  8,  -56,  1001,  0,  0,  -1,  -11,  -26,  -37
3617318, 1710336850, "2024/3/13 13:34:10",  0,  -50,  1005,  0,  0,  -1,  -10,  -27,  -36
3617518, 1710336850, "2024/3/13 13:34:10",  6,  -60,  1002,  0,  0,  -1,  -10,  -26,  -37
3617718, 1710336850, "2024/3/13 13:34:10",  2,  -63,  1006,  0,  0,  0,  -11,  -25,  -36
3617918, 1710336851, "2024/3/13 13:34:11",  7,  -62,  1002,  0,  0,  0,  -12,  -27,  -35
3618118, 1710336851, "2024/3/13 13:34:11",  6,  -61,  1004,  0,  0,  0,  -11,  -28,  -36
3618318, 1710336851, "2024/3/13 13:34:11",  9,  -59,  1006,  0,  0,  0,  -11,  -27,  -38
3618518, 1710336851, "2024/3/13 13:34:11",  5,  -61,  1006,  0,  0,  -1,  -10,  -28,  -37
3618718, 1710336851, "2024/3/13 13:34:11",  4,  -62,  1002,  0,  0,  0,  -11,  -26,  -36
3618918, 1710336852, "2024/3/13 13:34:12",  7,  -65,  1003,  0,  0,  -1,  -11,  -26,  -36
3619118, 1710336852, "2024/3/13 13:34:12",  9,  -61,  1005,  0,  0,  0,  -11,  -27,  -35
3619318, 1710336852, "2024/3/13 13:34:12",  8,  -61,  1001,  0,  0,  -1,  -11,  -26,  -36
3619518, 1710336852, "2024/3/13 13:34:12",  4,  -60,  1004,  0,  0,  -1,  -10,  -26,  -36
3619718, 1710336852, "2024/3/13 13:34:12",  4,  -63,  1001,  0,  -1,  -1,  -10,  -27,  -37
3619918, 1710336853, "2024/3/13 13:34:13",  5,  -62,  1004,  0,  0,  -1,  -10,  -27,  -36
3620118, 1710336853, "2024/3/13 13:34:13",  5,  -63,  1005,  0,  0,  -1,  -11,  -27,  -37
3620318, 1710336853, "2024/3/13 13:34:13",  7,  -66,  1004,  0,  0,  0,  -11,  -27,  -38
3620518, 1710336853, "2024/3/13 13:34:13",  8,  -56,  1001,  0,  0,  -1,  -10,  -28,  -36
3620718, 1710336853, "2024/3/13 13:34:13",  6,  -53,  1002,  0,  0,  -1,  -10,  -26,  -36
3620918, 1710336854, "2024/3/13 13:34:14",  7,  -58,  1004,  0,  0,  -1,  -9,  -25,  -36
3621118, 1710336854, "2024/3/13 13:34:14",  7,  -64,  1004,  0,  0,  -1,  -11,  -27,  -36
3621318, 1710336854, "2024/3/13 13:34:14",  0,  -55,  1003,  0,  0,  -1,  -11,  -27,  -36
3621518, 1710336854, "2024/3/13 13:34:14",  1,  -59,  1004,  0,  -1,  -1,  -11,  -27,  -35
3621718, 1710336854, "2024/3/13 13:34:14",  9,  -57,  1000,  0,  0,  -1,  -10,  -26,  -34
3621918, 1710336855, "2024/3/13 13:34:15",  10,  -63,  1005,  0,  0,  -1,  -11,  -27,  -37
3622118, 1710336855, "2024/3/13 13:34:15",  7,  -58,  1003,  0,  0,  -1,  -11,  -27,  -36
3622318, 1710336855, "2024/3/13 13:34:15",  7,  -61,  1003,  0,  -1,  0,  -11,  -26,  -36
3622518, 1710336855, "2024/3/13 13:34:15",  3,  -56,  1002,  0,  -1,  -1,  -10,  -27,  -36
3622718, 1710336855, "2024/3/13 13:34:15",  4,  -59,  1003,  0,  0,  -1,  -10,  -27,  -35
3622918, 1710336856, "2024/3/13 13:34:16",  7,  -58,  1002,  0,  0,  -1,  -11,  -27,  -35
3623118, 1710336856, "2024/3/13 13:34:16",  8,  -61,  1004,  0,  0,  0,  -11,  -27,  -36
3623318, 1710336856, "2024/3/13 13:34:16",  2,  -61,  1003,  0,  0,  -1,  -12,  -26,  -36
3623518, 1710336856, "2024/3/13 13:34:16",  6,  -51,  1000,  0,  0,  -1,  -11,  -27,  -36
3623718, 1710336856, "2024/3/13 13:34:16",  5,  -57,  1004,  0,  0,  0,  -11,  -26,  -37
3623918, 1710336857, "2024/3/13 13:34:17",  8,  -62,  1004,  0,  0,  -1,  -10,  -27,  -36
3624118, 1710336857, "2024/3/13 13:34:17",  8,  -56,  1005,  0,  -1,  -1,  -10,  -27,  -36
3624318, 1710336857, "2024/3/13 13:34:17",  5,  -54,  1002,  0,  0,  -1,  -9,  -25,  -36
3624518, 1710336857, "2024/3/13 13:34:17",  1,  -54,  1003,  0,  0,  -1,  -10,  -28,  -36
3624718, 1710336857, "2024/3/13 13:34:17",  10,  -62,  1001,  0,  0,  0,  -10,  -27,  -36
3624918, 1710336858, "2024/3/13 13:34:18",  9,  -63,  1001,  0,  0,  -1,  -10,  -26,  -36
3625118, 1710336858, "2024/3/13 13:34:18",  15,  -58,  1005,  0,  0,  -1,  -10,  -27,  -36
3625318, 1710336858, "2024/3/13 13:34:18",  10,  -61,  1005,  0,  0,  -1,  -11,  -27,  -37
3625518, 1710336858, "2024/3/13 13:34:18",  6,  -63,  1002,  0,  0,  0,  -11,  -25,  -36
3625718, 1710336858, "2024/3/13 13:34:18",  8,  -60,  1005,  0,  0,  -1,  -11,  -27,  -35
3625918, 1710336859, "2024/3/13 13:34:19",  6,  -58,  1000,  0,  0,  -1,  -11,  -26,  -36
3626118, 1710336859, "2024/3/13 13:34:19",  7,  -62,  1002,  0,  -1,  0,  -9,  -28,  -38
3626318, 1710336859, "2024/3/13 13:34:19",  12,  -59,  1005,  0,  0,  0,  -11,  -26,  -35
3626518, 1710336859, "2024/3/13 13:34:19",  7,  -63,  1005,  0,  0,  -1,  -10,  -25,  -38
3626718, 1710336859, "2024/3/13 13:34:19",  7,  -57,  1002,  0,  0,  -1,  -11,  -28,  -36
3626918, 1710336860, "2024/3/13 13:34:20",  14,  -56,  1001,  0,  0,  0,  -9,  -27,  -37
3627118, 1710336860, "2024/3/13 13:34:20",  5,  -59,  1003,  0,  0,  -1,  -11,  -28,  -36
3627318, 1710336860, "2024/3/13 13:34:20",  11,  -58,  1001,  0,  0,  -1,  -10,  -27,  -36
3627518, 1710336860, "2024/3/13 13:34:20",  6,  -58,  1002,  0,  0,  -1,  -11,  -26,  -35
3627718, 1710336860, "2024/3/13 13:34:20",  5,  -56,  1003,  0,  -1,  0,  -11,  -27,  -36
3627918, 1710336861, "2024/3/13 13:34:21",  6,  -57,  1006,  0,  -1,  -1,  -9,  -26,  -36
3628118, 1710336861, "2024/3/13 13:34:21",  9,  -56,  1004,  0,  0,  -1,  -10,  -27,  -36
3628318, 1710336861, "2024/3/13 13:34:21",  8,  -56,  1005,  0,  0,  0,  -11,  -26,  -37
3628518, 1710336861, "2024/3/13 13:34:21",  5,  -65,  999,  0,  0,  -1,  -11,  -27,  -36
3628718, 1710336861, "2024/3/13 13:34:21",  11,  -54,  1001,  0,  0,  0,  -11,  -26,  -36
3628918, 1710336862, "2024/3/13 13:34:22",  6,  -64,  999,  0,  0,  0,  -9,  -26,  -36
3629118, 1710336862, "2024/3/13 13:34:22",  9,  -56,  1002,  0,  0,  -1,  -10,  -27,  -37
3629318, 1710336862, "2024/3/13 13:34:22",  0,  -65,  1002,  0,  0,  -1,  -10,  -27,  -36
3629518, 1710336862, "2024/3/13 13:34:22",  7,  -58,  999,  0,  0,  -1,  -10,  -27,  -36
3629718, 1710336862, "2024/3/13 13:34:22",  6,  -61,  1004,  0,  0,  0,  -10,  -27,  -36
3629918, 1710336863, "2024/3/13 13:34:23",  -1,  -54,  1004,  0,  0,  0,  -10,  -28,  -37
3630118, 1710336863, "2024/3/13 13:34:23",  4,  -56,  1004,  0,  0,  -1,  -11,  -27,  -36
3630318, 1710336863, "2024/3/13 13:34:23",  4,  -59,  1000,  0,  0,  -1,  -11,  -26,  -37
3630518, 1710336863, "2024/3/13 13:34:23",  7,  -54,  1003,  0,  0,  0,  -11,  -25,  -35
3630718, 1710336863, "2024/3/13 13:34:23",  1,  -62,  1002,  0,  0,  0,  -10,  -27,  -35
3630918, 1710336864, "2024/3/13 13:34:24",  6,  -56,  1005,  0,  0,  -1,  -9,  -27,  -38
3631118, 1710336864, "2024/3/13 13:34:24",  4,  -59,  1002,  0,  0,  0,  -9,  -27,  -37
3631318, 1710336864, "2024/3/13 13:34:24",  8,  -62,  1002,  0,  0,  0,  -11,  -27,  -36
3631518, 1710336864, "2024/3/13 13:34:24",  8,  -58,  1005,  0,  -1,  0,  -10,  -25,  -37
3631718, 1710336864, "2024/3/13 13:34:24",  8,  -62,  1002,  0,  0,  0,  -11,  -28,  -38
3631918, 1710336865, "2024/3/13 13:34:25",  0,  -58,  1003,  0,  0,  -1,  -11,  -27,  -35
3632118, 1710336865, "2024/3/13 13:34:25",  2,  -54,  1003,  0,  0,  0,  -10,  -27,  -36
3632318, 1710336865, "2024/3/13 13:34:25",  2,  -57,  1005,  0,  0,  -1,  -11,  -26,  -37
3632518, 1710336865, "2024/3/13 13:34:25",  6,  -55,  1002,  0,  -1,  -1,  -10,  -26,  -36
3632718, 1710336865, "2024/3/13 13:34:25",  2,  -58,  1005,  0,  0,  0,  -10,  -27,  -37
3632918, 1710336866, "2024/3/13 13:34:26",  4,  -54,  1005,  0,  0,  0,  -10,  -27,  -37
3633118, 1710336866, "2024/3/13 13:34:26",  1,  -54,  1003,  0,  -1,  -1,  -11,  -26,  -38
3633318, 1710336866, "2024/3/13 13:34:26",  7,  -62,  1005,  0,  0,  -1,  -10,  -27,  -37
3633518, 1710336866, "2024/3/13 13:34:26",  7,  -61,  1005,  0,  0,  0,  -12,  -26,  -35
3633718, 1710336866, "2024/3/13 13:34:26",  7,  -54,  1000,  0,  0,  0,  -11,  -27,  -38
3633918, 1710336867, "2024/3/13 13:34:27",  8,  -47,  1004,  0,  0,  -1,  -11,  -26,  -37
3634118, 1710336867, "2024/3/13 13:34:27",  9,  -55,  1002,  1,  0,  -1,  -12,  -28,  -36
3634318, 1710336867, "2024/3/13 13:34:27",  8,  -59,  1001,  0,  0,  0,  -12,  -27,  -37
3634518, 1710336867, "2024/3/13 13:34:27",  3,  -60,  1005,  0,  0,  -1,  -11,  -25,  -36
3634718, 1710336867, "2024/3/13 13:34:27",  6,  -60,  1004,  0,  0,  -1,  -10,  -27,  -36
3634918, 1710336868, "2024/3/13 13:34:28",  4,  -61,  1001,  0,  0,  -1,  -11,  -26,  -36
3635118, 1710336868, "2024/3/13 13:34:28",  5,  -55,  1003,  0,  0,  -1,  -11,  -25,  -36
3635318, 1710336868, "2024/3/13 13:34:28",  6,  -55,  1005,  0,  0,  0,  -11,  -26,  -35
3635518, 1710336868, "2024/3/13 13:34:28",  2,  -57,  1003,  0,  0,  -1,  -11,  -27,  -35
3635718, 1710336868, "2024/3/13 13:34:28",  4,  -53,  1000,  0,  0,  -1,  -11,  -25,  -37
3635918, 1710336869, "2024/3/13 13:34:29",  10,  -62,  998,  0,  0,  -1,  -9,  -27,  -37
3636118, 1710336869, "2024/3/13 13:34:29",  7,  -58,  1004,  0,  0,  0,  -12,  -26,  -37
3636318, 1710336869, "2024/3/13 13:34:29",  0,  -61,  1007,  0,  0,  0,  -11,  -27,  -37
3636518, 1710336869, "2024/3/13 13:34:29",  7,  -61,  1006,  0,  0,  -1,  -12,  -25,  -36
3636718, 1710336869, "2024/3/13 13:34:29",  8,  -61,  1004,  0,  0,  0,  -10,  -27,  -37
3636918, 1710336870, "2024/3/13 13:34:30",  10,  -56,  1001,  0,  -1,  -1,  -11,  -26,  -36
3637118, 1710336870, "2024/3/13 13:34:30",  7,  -52,  1000,  0,  0,  -1,  -9,  -28,  -36
3637318, 1710336870, "2024/3/13 13:34:30",  4,  -54,  999,  0,  0,  -1,  -11,  -26,  -37
3637518, 1710336870, "2024/3/13 13:34:30",  8,  -57,  999,  0,  0,  0,  -11,  -27,  -37
3637718, 1710336870, "2024/3/13 13:34:30",  3,  -55,  999,  0,  0,  -1,  -10,  -26,  -37
3637918, 1710336871, "2024/3/13 13:34:31",  10,  -55,  1004,  0,  0,  0,  -10,  -26,  -37
3638118, 1710336871, "2024/3/13 13:34:31",  7,  -57,  1001,  0,  0,  0,  -11,  -27,  -38
3638318, 1710336871, "2024/3/13 13:34:31",  4,  -55,  1005,  0,  0,  -1,  -11,  -27,  -36
3638518, 1710336871, "2024/3/13 13:34:31",  6,  -53,  1005,  0,  -1,  0,  -9,  -26,  -38
3638718, 1710336871, "2024/3/13 13:34:31",  9,  -61,  1000,  0,  0,  -1,  -10,  -26,  -37
3638918, 1710336872, "2024/3/13 13:34:32",  5,  -56,  1005,  0,  0,  0,  -9,  -25,  -36
3639118, 1710336872, "2024/3/13 13:34:32",  5,  -57,  1003,  0,  0,  -1,  -11,  -27,  -37
3639318, 1710336872, "2024/3/13 13:34:32",  5,  -57,  1003,  0,  0,  -1,  -11,  -27,  -36
3639518, 1710336872, "2024/3/13 13:34:32",  7,  -61,  1005,  0,  0,  -1,  -10,  -24,  -34
3639718, 1710336872, "2024/3/13 13:34:32",  7,  -60,  1003,  0,  0,  -1,  -11,  -26,  -36
3639918, 1710336873, "2024/3/13 13:34:33",  8,  -57,  1002,  0,  0,  -1,  -12,  -28,  -36
3640118, 1710336873, "2024/3/13 13:34:33",  5,  -54,  1004,  0,  0,  0,  -10,  -26,  -36
3640318, 1710336873, "2024/3/13 13:34:33",  5,  -54,  1003,  0,  0,  -1,  -9,  -27,  -37
3640518, 1710336873, "2024/3/13 13:34:33",  8,  -63,  1006,  0,  0,  0,  -10,  -28,  -36
3640718, 1710336873, "2024/3/13 13:34:33",  9,  -56,  1004,  0,  0,  -1,  -11,  -25,  -36
3640918, 1710336874, "2024/3/13 13:34:34",  3,  -55,  1005,  0,  0,  -1,  -10,  -25,  -35
3641118, 1710336874, "2024/3/13 13:34:34",  7,  -60,  1002,  0,  0,  -1,  -11,  -26,  -34
3641318, 1710336874, "2024/3/13 13:34:34",  6,  -60,  1004,  0,  0,  0,  -9,  -27,  -36
3641518, 1710336874, "2024/3/13 13:34:34",  8,  -58,  1003,  0,  0,  -1,  -11,  -26,  -36
3641718, 1710336874, "2024/3/13 13:34:34",  4,  -56,  1004,  0,  0,  0,  -11,  -28,  -36
3641918, 1710336875, "2024/3/13 13:34:35",  3,  -58,  1007,  0,  0,  0,  -10,  -26,  -36
3642118, 1710336875, "2024/3/13 13:34:35",  4,  -57,  1003,  0,  0,  0,  -10,  -25,  -36
3642318, 1710336875, "2024/3/13 13:34:35",  5,  -56,  1003,  0,  0,  -1,  -11,  -27,  -37
3642518, 1710336875, "2024/3/13 13:34:35",  1,  -58,  1006,  0,  0,  -1,  -8,  -24,  -36
3642718, 1710336875, "2024/3/13 13:34:35",  4,  -59,  1004,  0,  0,  0,  -11,  -28,  -35
3642918, 1710336876, "2024/3/13 13:34:36",  5,  -61,  1003,  0,  0,  -1,  -10,  -27,  -36
3643118, 1710336876, "2024/3/13 13:34:36",  6,  -60,  999,  0,  0,  0,  -12,  -27,  -36
3643318, 1710336876, "2024/3/13 13:34:36",  6,  -54,  1002,  0,  0,  0,  -11,  -28,  -35
3643518, 1710336876, "2024/3/13 13:34:36",  6,  -57,  1002,  0,  0,  -1,  -10,  -27,  -35
3643718, 1710336876, "2024/3/13 13:34:36",  4,  -58,  998,  0,  0,  0,  -11,  -26,  -37
3643918, 1710336877, "2024/3/13 13:34:37",  5,  -52,  1002,  0,  -1,  0,  -10,  -26,  -37
3644118, 1710336877, "2024/3/13 13:34:37",  3,  -60,  1004,  0,  -1,  -1,  -12,  -27,  -36
3644318, 1710336877, "2024/3/13 13:34:37",  8,  -64,  1003,  0,  0,  0,  -12,  -27,  -36
3644518, 1710336877, "2024/3/13 13:34:37",  4,  -54,  1002,  0,  0,  -1,  -11,  -27,  -37
3644718, 1710336877, "2024/3/13 13:34:37",  3,  -56,  1001,  0,  0,  -1,  -11,  -27,  -35
3644918, 1710336878, "2024/3/13 13:34:38",  7,  -59,  1004,  0,  0,  -1,  -10,  -27,  -36
3645118, 1710336878, "2024/3/13 13:34:38",  5,  -56,  1000,  0,  0,  -1,  -10,  -28,  -36
3645318, 1710336878, "2024/3/13 13:34:38",  7,  -55,  1009,  0,  0,  -1,  -8,  -28,  -37
3645518, 1710336878, "2024/3/13 13:34:38",  3,  -61,  1002,  0,  0,  0,  -10,  -24,  -37
3645718, 1710336878, "2024/3/13 13:34:38",  10,  -54,  1004,  0,  0,  -1,  -11,  -25,  -34
3645918, 1710336879, "2024/3/13 13:34:39",  3,  -61,  1004,  0,  0,  -1,  -11,  -28,  -36
3646118, 1710336879, "2024/3/13 13:34:39",  5,  -64,  1002,  0,  -1,  -1,  -11,  -26,  -36
3646318, 1710336879, "2024/3/13 13:34:39",  3,  -59,  1003,  0,  -1,  -1,  -11,  -27,  -36
3646518, 1710336879, "2024/3/13 13:34:39",  7,  -63,  1006,  0,  0,  -1,  -11,  -27,  -36
3646718, 1710336879, "2024/3/13 13:34:39",  1,  -60,  1003,  0,  0,  0,  -10,  -27,  -36
3646918, 1710336880, "2024/3/13 13:34:40",  7,  -59,  1001,  0,  0,  0,  -11,  -27,  -37
3647118, 1710336880, "2024/3/13 13:34:40",  6,  -58,  1002,  0,  0,  -1,  -11,  -27,  -37
3647318, 1710336880, "2024/3/13 13:34:40",  8,  -62,  1004,  0,  0,  -1,  -10,  -27,  -35
3647518, 1710336880, "2024/3/13 13:34:40",  2,  -63,  1005,  0,  0,  0,  -12,  -28,  -34
3647718, 1710336880, "2024/3/13 13:34:40",  8,  -53,  1000,  0,  -1,  -1,  -11,  -26,  -36
3647918, 1710336881, "2024/3/13 13:34:41",  8,  -62,  1003,  0,  0,  0,  -11,  -27,  -37
3648118, 1710336881, "2024/3/13 13:34:41",  3,  -57,  1003,  0,  0,  0,  -9,  -26,  -35
3648318, 1710336881, "2024/3/13 13:34:41",  11,  -57,  1001,  0,  0,  -1,  -10,  -27,  -37
3648518, 1710336881, "2024/3/13 13:34:41",  11,  -57,  1006,  0,  0,  0,  -10,  -27,  -36
3648718, 1710336881, "2024/3/13 13:34:41",  2,  -64,  1002,  0,  0,  -1,  -11,  -27,  -36
3648918, 1710336882, "2024/3/13 13:34:42",  6,  -61,  1007,  0,  0,  -1,  -9,  -27,  -36
3649118, 1710336882, "2024/3/13 13:34:42",  8,  -55,  1001,  0,  0,  -1,  -10,  -27,  -38
3649318, 1710336882, "2024/3/13 13:34:42",  1,  -58,  1004,  0,  -1,  -1,  -12,  -27,  -37
3649518, 1710336882, "2024/3/13 13:34:42",  7,  -61,  1001,  0,  0,  -1,  -11,  -27,  -36
3649718, 1710336882, "2024/3/13 13:34:42",  8,  -59,  1003,  0,  0,  0,  -10,  -27,  -37
3649918, 1710336883, "2024/3/13 13:34:43",  6,  -59,  1006,  0,  0,  -1,  -10,  -26,  -37
3650118, 1710336883, "2024/3/13 13:34:43",  2,  -62,  1003,  0,  0,  -1,  -11,  -26,  -36
3650318, 1710336883, "2024/3/13 13:34:43",  5,  -59,  1004,  0,  0,  -1,  -11,  -27,  -35
3650518, 1710336883, "2024/3/13 13:34:43",  7,  -63,  1002,  0,  -1,  -1,  -10,  -27,  -36
3650718, 1710336883, "2024/3/13 13:34:43",  12,  -58,  1004,  0,  0,  0,  -11,  -28,  -37
3650918, 1710336884, "2024/3/13 13:34:44",  1,  -59,  1002,  0,  0,  -1,  -11,  -26,  -37
3651118, 1710336884, "2024/3/13 13:34:44",  6,  -57,  1006,  0,  0,  0,  -8,  -27,  -37
3651318, 1710336884, "2024/3/13 13:34:44",  8,  -58,  1003,  0,  0,  -1,  -12,  -25,  -36
3651518, 1710336884, "2024/3/13 13:34:44",  6,  -63,  1000,  0,  0,  0,  -11,  -26,  -37
3651718, 1710336884, "2024/3/13 13:34:44",  6,  -56,  1005,  0,  -1,  0,  -12,  -27,  -36
3651918, 1710336885, "2024/3/13 13:34:45",  11,  -55,  1005,  0,  0,  0,  -11,  -28,  -36
3652118, 1710336885, "2024/3/13 13:34:45",  11,  -60,  1005,  0,  0,  -1,  -11,  -27,  -36
3652318, 1710336885, "2024/3/13 13:34:45",  8,  -62,  1005,  0,  0,  -1,  -10,  -26,  -36
3652518, 1710336885, "2024/3/13 13:34:45",  2,  -60,  1004,  0,  0,  -1,  -10,  -26,  -35
3652718, 1710336885, "2024/3/13 13:34:45",  -4,  -54,  1004,  0,  0,  -1,  -12,  -27,  -35
3652918, 1710336886, "2024/3/13 13:34:46",  7,  -56,  1001,  0,  0,  0,  -9,  -28,  -37
3653118, 1710336886, "2024/3/13 13:34:46",  10,  -67,  1009,  0,  0,  0,  -10,  -27,  -36
3653318, 1710336886, "2024/3/13 13:34:46",  8,  -59,  1002,  0,  -1,  -1,  -12,  -27,  -36
3653518, 1710336886, "2024/3/13 13:34:46",  6,  -61,  1005,  0,  0,  0,  -12,  -27,  -36
3653718, 1710336886, "2024/3/13 13:34:46",  4,  -66,  1007,  0,  0,  0,  -11,  -28,  -36
3653918, 1710336887, "2024/3/13 13:34:47",  10,  -55,  1003,  0,  0,  0,  -10,  -25,  -36
3654118, 1710336887, "2024/3/13 13:34:47",  3,  -58,  1005,  0,  0,  0,  -9,  -25,  -36
3654318, 1710336887, "2024/3/13 13:34:47",  7,  -54,  1004,  0,  0,  -1,  -10,  -27,  -38
3654518, 1710336887, "2024/3/13 13:34:47",  6,  -59,  1002,  0,  0,  -1,  -10,  -26,  -36
3654718, 1710336887, "2024/3/13 13:34:47",  8,  -56,  1002,  0,  -1,  -1,  -11,  -27,  -36
3654918, 1710336888, "2024/3/13 13:34:48",  5,  -59,  1000,  0,  0,  0,  -12,  -28,  -36
3655118, 1710336888, "2024/3/13 13:34:48",  7,  -57,  1006,  0,  0,  -1,  -11,  -26,  -36
3655318, 1710336888, "2024/3/13 13:34:48",  11,  -57,  1002,  0,  0,  0,  -10,  -27,  -38
3655518, 1710336888, "2024/3/13 13:34:48",  6,  -64,  1005,  0,  0,  0,  -11,  -26,  -36
3655718, 1710336888, "2024/3/13 13:34:48",  7,  -59,  1004,  0,  0,  -1,  -12,  -27,  -38
3655918, 1710336889, "2024/3/13 13:34:49",  4,  -54,  1004,  0,  -1,  -1,  -11,  -28,  -35
3656118, 1710336889, "2024/3/13 13:34:49",  -6,  -57,  1000,  0,  0,  -1,  -9,  -26,  -37
3656318, 1710336889, "2024/3/13 13:34:49",  0,  -57,  1006,  0,  0,  -1,  -11,  -27,  -37
3656518, 1710336889, "2024/3/13 13:34:49",  3,  -63,  1002,  0,  0,  0,  -10,  -28,  -36
3656718, 1710336889, "2024/3/13 13:34:49",  3,  -59,  1001,  0,  0,  -1,  -11,  -27,  -38
3656918, 1710336890, "2024/3/13 13:34:50",  5,  -58,  1001,  0,  0,  0,  -12,  -27,  -36
3657118, 1710336890, "2024/3/13 13:34:50",  0,  -64,  1001,  0,  0,  -1,  -11,  -27,  -37
3657318, 1710336890, "2024/3/13 13:34:50",  3,  -55,  1003,  0,  0,  -1,  -11,  -25,  -36
3657518, 1710336890, "2024/3/13 13:34:50",  5,  -54,  1000,  0,  0,  -1,  -11,  -27,  -36
3657718, 1710336890, "2024/3/13 13:34:50",  7,  -60,  1001,  0,  0,  -1,  -11,  -24,  -36
3657918, 1710336891, "2024/3/13 13:34:51",  9,  -64,  1000,  0,  0,  0,  -11,  -26,  -35
3658118, 1710336891, "2024/3/13 13:34:51",  10,  -61,  998,  0,  0,  0,  -10,  -26,  -36
3658318, 1710336891, "2024/3/13 13:34:51",  11,  -60,  1001,  0,  0,  0,  -10,  -28,  -37
3658518, 1710336891, "2024/3/13 13:34:51",  13,  -55,  1008,  0,  0,  -1,  -12,  -27,  -37
3658718, 1710336891, "2024/3/13 13:34:51",  10,  -57,  1006,  0,  0,  -1,  -10,  -26,  -36
3658918, 1710336892, "2024/3/13 13:34:52",  10,  -56,  1006,  0,  0,  -1,  -11,  -27,  -36
3659118, 1710336892, "2024/3/13 13:34:52",  5,  -58,  1003,  0,  0,  0,  -10,  -28,  -37
3659318, 1710336892, "2024/3/13 13:34:52",  9,  -63,  1003,  0,  0,  0,  -10,  -27,  -36
3659518, 1710336892, "2024/3/13 13:34:52",  8,  -52,  1003,  0,  -1,  -1,  -11,  -26,  -36
3659718, 1710336892, "2024/3/13 13:34:52",  5,  -53,  1006,  0,  0,  -1,  -11,  -27,  -37
3659918, 1710336893, "2024/3/13 13:34:53",  13,  -60,  1003,  1,  0,  -1,  -11,  -26,  -37
3660118, 1710336893, "2024/3/13 13:34:53",  16,  -52,  998,  0,  -1,  0,  -10,  -26,  -37
3660318, 1710336893, "2024/3/13 13:34:53",  8,  -55,  1006,  0,  0,  0,  -11,  -27,  -37
3660518, 1710336893, "2024/3/13 13:34:53",  5,  -64,  1003,  0,  0,  0,  -9,  -26,  -37
3660718, 1710336893, "2024/3/13 13:34:53",  3,  -55,  1001,  0,  0,  0,  -9,  -26,  -36
3660918, 1710336894, "2024/3/13 13:34:54",  6,  -62,  1002,  0,  -1,  -1,  -11,  -27,  -37
3661118, 1710336894, "2024/3/13 13:34:54",  0,  -65,  1007,  0,  0,  0,  -10,  -25,  -36
3661318, 1710336894, "2024/3/13 13:34:54",  4,  -60,  1006,  0,  0,  -1,  -7,  -28,  -37
3661518, 1710336894, "2024/3/13 13:34:54",  10,  -54,  1010,  0,  0,  -1,  -11,  -27,  -36
3661718, 1710336894, "2024/3/13 13:34:54",  7,  -59,  1005,  0,  0,  0,  -10,  -25,  -37
3661918, 1710336895, "2024/3/13 13:34:55",  6,  -67,  1003,  0,  0,  -1,  -11,  -26,  -36
3662118, 1710336895, "2024/3/13 13:34:55",  4,  -57,  1003,  0,  -1,  -1,  -10,  -28,  -36
3662318, 1710336895, "2024/3/13 13:34:55",  2,  -59,  1003,  0,  -1,  0,  -12,  -27,  -37
3662518, 1710336895, "2024/3/13 13:34:55",  7,  -58,  1006,  0,  -1,  -1,  -10,  -27,  -36
3662718, 1710336895, "2024/3/13 13:34:55",  12,  -66,  1007,  0,  0,  -1,  -10,  -27,  -36
3662918, 1710336896, "2024/3/13 13:34:56",  13,  -63,  1001,  0,  0,  0,  -10,  -27,  -36
3663118, 1710336896, "2024/3/13 13:34:56",  8,  -52,  995,  1,  -1,  -1,  -11,  -25,  -37
3663318, 1710336896, "2024/3/13 13:34:56",  8,  -48,  1005,  0,  0,  0,  -10,  -27,  -37
3663518, 1710336896, "2024/3/13 13:34:56",  6,  -61,  1003,  0,  0,  -1,  -9,  -27,  -37
3663718, 1710336896, "2024/3/13 13:34:56",  7,  -62,  1004,  0,  0,  -1,  -10,  -26,  -36
3663918, 1710336897, "2024/3/13 13:34:57",  5,  -57,  1004,  0,  0,  -1,  -10,  -26,  -37
3664118, 1710336897, "2024/3/13 13:34:57",  6,  -62,  1003,  0,  0,  -1,  -10,  -28,  -36
3664318, 1710336897, "2024/3/13 13:34:57",  3,  -58,  1001,  0,  0,  0,  -11,  -26,  -36
3664518, 1710336897, "2024/3/13 13:34:57",  4,  -58,  1005,  0,  0,  -1,  -12,  -27,  -37
3664718, 1710336897, "2024/3/13 13:34:57",  4,  -65,  1004,  0,  0,  0,  -9,  -28,  -37
3664918, 1710336898, "2024/3/13 13:34:58",  5,  -57,  1001,  0,  0,  0,  -10,  -27,  -37
3665118, 1710336898, "2024/3/13 13:34:58",  1,  -62,  1001,  0,  0,  0,  -9,  -27,  -37
3665318, 1710336898, "2024/3/13 13:34:58",  10,  -61,  1001,  0,  0,  -1,  -9,  -27,  -37
3665518, 1710336898, "2024/3/13 13:34:58",  9,  -65,  1001,  0,  0,  -1,  -10,  -25,  -37
3665718, 1710336898, "2024/3/13 13:34:58",  9,  -51,  1007,  0,  0,  -1,  -12,  -25,  -36
3665918, 1710336899, "2024/3/13 13:34:59",  7,  -58,  1005,  0,  0,  0,  -12,  -25,  -38
3666118, 1710336899, "2024/3/13 13:34:59",  8,  -66,  1005,  0,  -1,  -1,  -10,  -27,  -36
3666318, 1710336899, "2024/3/13 13:34:59",  8,  -54,  1002,  0,  0,  0,  -9,  -26,  -36
3666518, 1710336899, "2024/3/13 13:34:59",  8,  -57,  1004,  0,  0,  -1,  -11,  -27,  -36
3666718, 1710336899, "2024/3/13 13:34:59",  9,  -55,  1001,  0,  0,  -1,  -9,  -27,  -36
3666918, 1710336900, "2024/3/13 13:35:0",  5,  -64,  1004,  0,  0,  0,  -11,  -26,  -36
3667118, 1710336900, "2024/3/13 13:35:0",  2,  -62,  1007,  0,  0,  0,  -11,  -27,  -39
3667318, 1710336900, "2024/3/13 13:35:0",  -2,  -59,  1002,  0,  -1,  -1,  -11,  -27,  -36
3667518, 1710336900, "2024/3/13 13:35:0",  4,  -57,  1002,  0,  0,  0,  -10,  -26,  -37
3667718, 1710336900, "2024/3/13 13:35:0",  2,  -58,  1007,  0,  0,  0,  -13,  -26,  -37
3667918, 1710336901, "2024/3/13 13:35:1",  0,  -64,  1005,  0,  0,  0,  -9,  -26,  -37
3668118, 1710336901, "2024/3/13 13:35:1",  1,  -52,  1010,  0,  -1,  -1,  -10,  -27,  -36
3668318, 1710336901, "2024/3/13 13:35:1",  8,  -63,  1003,  0,  0,  0,  -12,  -27,  -36
3668518, 1710336901, "2024/3/13 13:35:1",  4,  -64,  1000,  0,  0,  0,  -11,  -28,  -36
3668718, 1710336901, "2024/3/13 13:35:1",  5,  -56,  1001,  0,  0,  -1,  -10,  -27,  -35
3668918, 1710336902, "2024/3/13 13:35:2",  5,  -58,  1006,  0,  0,  0,  -9,  -27,  -36
3669118, 1710336902, "2024/3/13 13:35:2",  6,  -64,  1006,  0,  0,  -1,  -11,  -26,  -36
3669318, 1710336902, "2024/3/13 13:35:2",  6,  -58,  1006,  0,  -1,  -1,  -11,  -27,  -36
3669518, 1710336902, "2024/3/13 13:35:2",  4,  -58,  1001,  0,  0,  0,  -12,  -25,  -36
3669718, 1710336902, "2024/3/13 13:35:2",  3,  -64,  1002,  0,  0,  -1,  -11,  -27,  -37
3669918, 1710336903, "2024/3/13 13:35:3",  5,  -54,  1004,  0,  0,  -1,  -11,  -26,  -36
3670118, 1710336903, "2024/3/13 13:35:3",  4,  -54,  1005,  0,  0,  0,  -9,  -26,  -36
3670318, 1710336903, "2024/3/13 13:35:3",  5,  -57,  1004,  0,  -1,  -1,  -10,  -26,  -36
3670518, 1710336903, "2024/3/13 13:35:3",  4,  -56,  1002,  0,  0,  -1,  -11,  -27,  -36
3670718, 1710336903, "2024/3/13 13:35:3",  7,  -58,  1000,  0,  -1,  -1,  -11,  -27,  -36
3670918, 1710336904, "2024/3/13 13:35:4",  4,  -58,  1002,  0,  -1,  -1,  -10,  -27,  -37
3671118, 1710336904, "2024/3/13 13:35:4",  6,  -66,  1005,  0,  0,  -1,  -11,  -27,  -36
3671318, 1710336904, "2024/3/13 13:35:4",  6,  -62,  1002,  0,  0,  0,  -9,  -27,  -36
3671518, 1710336904, "2024/3/13 13:35:4",  4,  -64,  1001,  0,  0,  0,  -10,  -27,  -36
3671718, 1710336904, "2024/3/13 13:35:4",  5,  -64,  1007,  0,  0,  -1,  -10,  -25,  -37
3671918, 1710336905, "2024/3/13 13:35:5",  7,  -59,  1000,  0,  -1,  -1,  -10,  -27,  -37
3672118, 1710336905, "2024/3/13 13:35:5",  6,  -56,  1006,  0,  -1,  -1,  -12,  -26,  -37
3672318, 1710336905, "2024/3/13 13:35:5",  10,  -61,  1004,  0,  0,  -1,  -11,  -27,  -36
3672518, 1710336905, "2024/3/13 13:35:5",  4,  -57,  1002,  0,  0,  0,  -9,  -27,  -37
3672718, 1710336905, "2024/3/13 13:35:5",  8,  -62,  998,  0,  0,  0,  -11,  -25,  -38
3672918, 1710336906, "2024/3/13 13:35:6",  7,  -56,  1001,  0,  -1,  -1,  -13,  -25,  -37
3673118, 1710336906, "2024/3/13 13:35:6",  8,  -60,  1004,  0,  0,  0,  -10,  -27,  -37
3673318, 1710336906, "2024/3/13 13:35:6",  3,  -54,  1005,  0,  0,  -1,  -9,  -26,  -37
3673518, 1710336906, "2024/3/13 13:35:6",  8,  -55,  1002,  0,  0,  0,  -10,  -27,  -37
3673718, 1710336906, "2024/3/13 13:35:6",  7,  -61,  1002,  0,  0,  -1,  -9,  -27,  -36
3673918, 1710336907, "2024/3/13 13:35:7",  6,  -62,  1002,  0,  0,  -1,  -9,  -27,  -37
3674118, 1710336907, "2024/3/13 13:35:7",  6,  -61,  1003,  0,  0,  -1,  -9,  -27,  -37
3674318, 1710336907, "2024/3/13 13:35:7",  8,  -55,  1000,  0,  0,  0,  -11,  -27,  -37
3674518, 1710336907, "2024/3/13 13:35:7",  12,  -60,  1003,  0,  0,  -1,  -11,  -25,  -37
3674718, 1710336907, "2024/3/13 13:35:7",  7,  -56,  1003,  0,  0,  -1,  -9,  -25,  -36
3674918, 1710336908, "2024/3/13 13:35:8",  4,  -54,  1001,  0,  0,  -1,  -11,  -27,  -36
3675118, 1710336908, "2024/3/13 13:35:8",  12,  -56,  1005,  0,  0,  -1,  -10,  -27,  -36
3675318, 1710336908, "2024/3/13 13:35:8",  10,  -66,  1001,  0,  0,  -1,  -11,  -27,  -35
3675518, 1710336908, "2024/3/13 13:35:8",  4,  -62,  1002,  0,  0,  0,  -11,  -26,  -36
3675718, 1710336908, "2024/3/13 13:35:8",  21,  -60,  1034,  0,  0,  -1,  -9,  -27,  -36
3675918, 1710336909, "2024/3/13 13:35:9",  12,  -59,  1003,  0,  -1,  -1,  -10,  -27,  -37
3676118, 1710336909, "2024/3/13 13:35:9",  11,  -61,  1004,  0,  0,  0,  -11,  -25,  -37
3676318, 1710336909, "2024/3/13 13:35:9",  6,  -61,  1001,  0,  0,  0,  -11,  -27,  -36
3676518, 1710336909, "2024/3/13 13:35:9",  10,  -59,  1003,  0,  0,  0,  -12,  -27,  -36
3676718, 1710336909, "2024/3/13 13:35:9",  8,  -55,  1003,  0,  0,  -1,  -10,  -26,  -36
3676918, 1710336910, "2024/3/13 13:35:10",  4,  -73,  999,  0,  0,  -1,  -12,  -26,  -35
3677118, 1710336910, "2024/3/13 13:35:10",  6,  -66,  1003,  0,  -1,  0,  -11,  -27,  -37
3677318, 1710336910, "2024/3/13 13:35:10",  5,  -53,  1002,  0,  -1,  -1,  -10,  -26,  -37
3677518, 1710336910, "2024/3/13 13:35:10",  1,  -71,  1007,  0,  -1,  0,  -11,  -26,  -35
3677718, 1710336910, "2024/3/13 13:35:10",  5,  -56,  1002,  0,  0,  -1,  -10,  -27,  -36
3677918, 1710336911, "2024/3/13 13:35:11",  4,  -57,  1000,  0,  0,  0,  -10,  -27,  -37
3678118, 1710336911, "2024/3/13 13:35:11",  8,  -60,  1002,  0,  0,  0,  -11,  -26,  -36
3678318, 1710336911, "2024/3/13 13:35:11",  2,  -66,  1002,  0,  0,  0,  -10,  -27,  -36
3678518, 1710336911, "2024/3/13 13:35:11",  7,  -56,  1007,  0,  0,  -1,  -10,  -27,  -36
3678718, 1710336911, "2024/3/13 13:35:11",  9,  -56,  1004,  0,  0,  0,  -11,  -28,  -35
3678918, 1710336912, "2024/3/13 13:35:12",  10,  -53,  1004,  0,  0,  -1,  -9,  -27,  -36
3679118, 1710336912, "2024/3/13 13:35:12",  2,  -65,  1002,  0,  0,  -1,  -11,  -26,  -38
3679318, 1710336912, "2024/3/13 13:35:12",  4,  -61,  1005,  0,  0,  0,  -11,  -27,  -37
3679518, 1710336912, "2024/3/13 13:35:12",  1,  -54,  1004,  0,  0,  -1,  -10,  -27,  -36
3679718, 1710336912, "2024/3/13 13:35:12",  4,  -63,  1006,  0,  0,  -1,  -11,  -26,  -36
3679918, 1710336913, "2024/3/13 13:35:13",  0,  -59,  1001,  0,  0,  -1,  -12,  -26,  -36
3680118, 1710336913, "2024/3/13 13:35:13",  2,  -57,  988,  0,  0,  -1,  -9,  -25,  -36
3680318, 1710336913, "2024/3/13 13:35:13",  0,  -63,  1001,  0,  0,  -1,  -10,  -26,  -36
3680518, 1710336913, "2024/3/13 13:35:13",  6,  -58,  1004,  0,  -1,  0,  -10,  -26,  -36
3680718, 1710336913, "2024/3/13 13:35:13",  7,  -52,  1001,  0,  0,  0,  -9,  -26,  -37
3680918, 1710336914, "2024/3/13 13:35:14",  10,  -71,  1004,  0,  0,  -1,  -12,  -26,  -36
3681118, 1710336914, "2024/3/13 13:35:14",  11,  -61,  1004,  0,  0,  0,  -11,  -26,  -37
3681318, 1710336914, "2024/3/13 13:35:14",  10,  -62,  1008,  0,  0,  -1,  -11,  -25,  -35
3681518, 1710336914, "2024/3/13 13:35:14",  4,  -60,  1008,  0,  0,  -1,  -11,  -27,  -37
3681718, 1710336914, "2024/3/13 13:35:14",  12,  -65,  1017,  0,  0,  -1,  -10,  -27,  -38
3681918, 1710336915, "2024/3/13 13:35:15",  5,  -66,  1002,  0,  0,  -1,  -11,  -26,  -37
3682118, 1710336915, "2024/3/13 13:35:15",  8,  -58,  1007,  0,  0,  0,  -11,  -26,  -37
3682318, 1710336915, "2024/3/13 13:35:15",  9,  -63,  1006,  0,  0,  0,  -11,  -27,  -35
3682518, 1710336915, "2024/3/13 13:35:15",  10,  -50,  1003,  0,  0,  -1,  -11,  -27,  -36
3682718, 1710336915, "2024/3/13 13:35:15",  2,  -63,  999,  0,  0,  -1,  -10,  -25,  -36
3682918, 1710336916, "2024/3/13 13:35:16",  -3,  -53,  997,  0,  0,  -1,  -10,  -28,  -37
3683118, 1710336916, "2024/3/13 13:35:16",  -1,  -53,  1004,  0,  0,  -1,  -10,  -26,  -36
3683318, 1710336916, "2024/3/13 13:35:16",  4,  -59,  1002,  0,  0,  -1,  -10,  -28,  -36
3683518, 1710336916, "2024/3/13 13:35:16",  5,  -59,  1008,  0,  0,  0,  -10,  -25,  -37
3683718, 1710336916, "2024/3/13 13:35:16",  7,  -58,  1002,  0,  0,  0,  -9,  -26,  -37
3683918, 1710336917, "2024/3/13 13:35:17",  4,  -65,  1005,  0,  0,  -1,  -11,  -28,  -36
3684118, 1710336917, "2024/3/13 13:35:17",  3,  -56,  1002,  0,  0,  0,  -10,  -25,  -36
3684318, 1710336917, "2024/3/13 13:35:17",  3,  -61,  1003,  0,  0,  0,  -10,  -26,  -36
3684518, 1710336917, "2024/3/13 13:35:17",  2,  -56,  1007,  0,  0,  -1,  -10,  -26,  -37
3684718, 1710336917, "2024/3/13 13:35:17",  -3,  -48,  998,  0,  0,  -1,  -9,  -26,  -37
3684918, 1710336918, "2024/3/13 13:35:18",  0,  -57,  1004,  0,  -1,  -1,  -10,  -25,  -36
3685118, 1710336918, "2024/3/13 13:35:18",  1,  -71,  1002,  0,  0,  -1,  -9,  -26,  -36
3685318, 1710336918, "2024/3/13 13:35:18",  5,  -58,  1001,  0,  0,  -1,  -11,  -25,  -36
3685518, 1710336918, "2024/3/13 13:35:18",  6,  -59,  1002,  0,  0,  -1,  -11,  -25,  -36
3685718, 1710336918, "2024/3/13 13:35:18",  9,  -61,  1007,  0,  0,  -1,  -12,  -27,  -37
3685918, 1710336919, "2024/3/13 13:35:19",  0,  -54,  996,  0,  -1,  -1,  -11,  -28,  -35
3686118, 1710336919, "2024/3/13 13:35:19",  3,  -59,  1003,  0,  -1,  0,  -11,  -26,  -35
3686318, 1710336919, "2024/3/13 13:35:19",  1,  -59,  1006,  0,  -1,  -1,  -10,  -27,  -36
3686518, 1710336919, "2024/3/13 13:35:19",  6,  -60,  1004,  0,  0,  -1,  -11,  -25,  -36
3686718, 1710336919, "2024/3/13 13:35:19",  7,  -57,  1005,  0,  0,  0,  -11,  -26,  -36
3686918, 1710336920, "2024/3/13 13:35:20",  2,  -62,  1006,  0,  0,  0,  -11,  -27,  -36
3687118, 1710336920, "2024/3/13 13:35:20",  5,  -59,  1004,  0,  0,  0,  -8,  -28,  -36
3687318, 1710336920, "2024/3/13 13:35:20",  5,  -55,  1007,  0,  0,  -1,  -11,  -28,  -35
3687518, 1710336920, "2024/3/13 13:35:20",  5,  -56,  1007,  0,  0,  -1,  -10,  -26,  -36
3687718, 1710336920, "2024/3/13 13:35:20",  4,  -58,  1004,  0,  0,  0,  -9,  -27,  -38
3687918, 1710336921, "2024/3/13 13:35:21",  5,  -46,  1005,  0,  0,  -1,  -11,  -25,  -38
3688118, 1710336921, "2024/3/13 13:35:21",  5,  -58,  1004,  0,  -1,  -1,  -10,  -26,  -37
3688318, 1710336921, "2024/3/13 13:35:21",  2,  -64,  1003,  0,  0,  0,  -11,  -28,  -36
3688518, 1710336921, "2024/3/13 13:35:21",  0,  -59,  1006,  0,  0,  0,  -11,  -26,  -37
3688718, 1710336921, "2024/3/13 13:35:21",  0,  -63,  1004,  0,  0,  0,  -9,  -25,  -37
3688918, 1710336922, "2024/3/13 13:35:22",  6,  -58,  1002,  0,  0,  -1,  -10,  -26,  -36
3689118, 1710336922, "2024/3/13 13:35:22",  8,  -59,  1003,  0,  0,  -1,  -10,  -26,  -38
3689318, 1710336922, "2024/3/13 13:35:22",  3,  -54,  1005,  0,  -1,  -1,  -12,  -27,  -37
3689518, 1710336922, "2024/3/13 13:35:22",  3,  -60,  1002,  0,  0,  0,  -11,  -27,  -36
3689718, 1710336922, "2024/3/13 13:35:22",  2,  -60,  1000,  0,  0,  0,  -12,  -26,  -36
3689918, 1710336923, "2024/3/13 13:35:23",  3,  -58,  1001,  0,  0,  0,  -11,  -28,  -36
3690118, 1710336923, "2024/3/13 13:35:23",  6,  -63,  1006,  0,  0,  0,  -11,  -27,  -37
3690318, 1710336923, "2024/3/13 13:35:23",  8,  -55,  1003,  0,  -1,  -1,  -11,  -28,  -35
3690518, 1710336923, "2024/3/13 13:35:23",  0,  -58,  1002,  0,  0,  -1,  -9,  -26,  -37
3690718, 1710336923, "2024/3/13 13:35:23",  1,  -57,  1005,  0,  0,  0,  -11,  -28,  -37
3690918, 1710336924, "2024/3/13 13:35:24",  -2,  -57,  1003,  0,  0,  -1,  -11,  -27,  -37
3691118, 1710336924, "2024/3/13 13:35:24",  7,  -60,  1002,  0,  0,  -1,  -10,  -25,  -37
3691318, 1710336924, "2024/3/13 13:35:24",  5,  -63,  1005,  0,  0,  -1,  -11,  -26,  -37
3691518, 1710336924, "2024/3/13 13:35:24",  5,  -60,  1004,  0,  0,  0,  -12,  -25,  -36
3691718, 1710336924, "2024/3/13 13:35:24",  7,  -57,  1000,  0,  0,  -1,  -10,  -26,  -36
3691918, 1710336925, "2024/3/13 13:35:25",  2,  -55,  1005,  0,  0,  -1,  -12,  -28,  -37
3692118, 1710336925, "2024/3/13 13:35:25",  2,  -60,  1002,  0,  0,  -1,  -12,  -28,  -37
