millis,stamp,datetime,accX,accY,accZ,gyroX,gyroY,gyroZ,compX,compY,compZ
3328675, 1710336561, "2024/3/13 13:29:21",  4,  -64,  1001,  0,  0,  0,  -11,  -27,  -37
3328875, 1710336561, "2024/3/13 13:29:21",  6,  -64,  1004,  0,  -1,  -1,  -10,  -26,  -36
3329075, 1710336562, "2024/3/13 13:29:22",  7,  -67,  1005,  0,  0,  -1,  -9,  -27,  -37
3329275, 1710336562, "2024/3/13 13:29:22",  3,  -53,  1004,  0,  0,  0,  -11,  -26,  -37
3329475, 1710336562, "2024/3/13 13:29:22",  5,  -57,  1004,  0,  0,  0,  -11,  -25,  -35
3329675, 1710336562, "2024/3/13 13:29:22",  8,  -61,  1005,  0,  0,  0,  -12,  -27,  -38
3329875, 1710336562, "2024/3/13 13:29:22",  4,  -59,  1002,  0,  0,  0,  -10,  -26,  -36
3330075, 1710336563, "2024/3/13 13:29:23",  4,  -65,  1001,  0,  0,  -1,  -12,  -28,  -36
3330275, 1710336563, "2024/3/13 13:29:23",  9,  -61,  1004,  0,  0,  -1,  -10,  -26,  -36
3330475, 1710336563, "2024/3/13 13:29:23",  3,  -52,  1003,  0,  0,  -1,  -11,  -27,  -36
3330675, 1710336563, "2024/3/13 13:29:23",  2,  -64,  1000,  0,  0,  -1,  -11,  -26,  -37
3330875, 1710336563, "2024/3/13 13:29:23",  4,  -57,  1001,  0,  -1,  0,  -11,  -25,  -37
3331075, 1710336564, "2024/3/13 13:29:24",  4,  -54,  1005,  0,  0,  -1,  -11,  -26,  -36
3331275, 1710336564, "2024/3/13 13:29:24",  5,  -56,  1001,  0,  0,  0,  -11,  -25,  -37
3331475, 1710336564, "2024/3/13 13:29:24",  8,  -57,  1003,  0,  0,  -1,  -11,  -28,  -34
3331675, 1710336564, "2024/3/13 13:29:24",  1,  -56,  1002,  0,  -1,  -1,  -11,  -27,  -36
3331875, 1710336564, "2024/3/13 13:29:24",  3,  -61,  1003,  0,  -1,  0,  -10,  -26,  -37
3332075, 1710336565, "2024/3/13 13:29:25",  6,  -55,  1005,  0,  0,  -1,  -11,  -26,  -37
3332275, 1710336565, "2024/3/13 13:29:25",  9,  -60,  1002,  0,  0,  -1,  -11,  -24,  -36
3332475, 1710336565, "2024/3/13 13:29:25",  9,  -54,  1005,  0,  0,  -1,  -10,  -26,  -38
3332675, 1710336565, "2024/3/13 13:29:25",  13,  -62,  1004,  0,  0,  0,  -11,  -27,  -36
3332875, 1710336565, "2024/3/13 13:29:25",  7,  -64,  1004,  0,  -1,  0,  -11,  -27,  -36
3333075, 1710336566, "2024/3/13 13:29:26",  10,  -57,  1003,  0,  -1,  -1,  -11,  -26,  -36
3333275, 1710336566, "2024/3/13 13:29:26",  -8,  -58,  999,  0,  0,  0,  -10,  -26,  -36
3333475, 1710336566, "2024/3/13 13:29:26",  11,  -68,  1002,  0,  0,  -1,  -11,  -26,  -37
3333675, 1710336566, "2024/3/13 13:29:26",  6,  -60,  1000,  0,  0,  0,  -12,  -25,  -37
3333875, 1710336566, "2024/3/13 13:29:26",  2,  -58,  1001,  0,  0,  -1,  -11,  -28,  -36
3334075, 1710336567, "2024/3/13 13:29:27",  5,  -53,  1006,  0,  0,  -1,  -10,  -26,  -38
3334275, 1710336567, "2024/3/13 13:29:27",  12,  -57,  999,  0,  -1,  -1,  -10,  -27,  -36
3334475, 1710336567, "2024/3/13 13:29:27",  1,  -63,  1004,  1,  0,  0,  -11,  -26,  -36
3334675, 1710336567, "2024/3/13 13:29:27",  5,  -64,  1001,  0,  0,  0,  -9,  -27,  -37
3334875, 1710336567, "2024/3/13 13:29:27",  6,  -55,  1000,  0,  0,  0,  -10,  -26,  -36
3335075, 1710336568, "2024/3/13 13:29:28",  4,  -57,  1002,  0,  0,  0,  -11,  -25,  -36
3335275, 1710336568, "2024/3/13 13:29:28",  5,  -56,  1008,  0,  -1,  0,  -10,  -26,  -38
3335475, 1710336568, "2024/3/13 13:29:28",  9,  -54,  1004,  0,  0,  -1,  -11,  -26,  -36
3335675, 1710336568, "2024/3/13 13:29:28",  10,  -53,  1000,  0,  -1,  -1,  -11,  -27,  -37
3335875, 1710336568, "2024/3/13 13:29:28",  9,  -62,  1001,  0,  0,  -1,  -10,  -26,  -38
3336075, 1710336569, "2024/3/13 13:29:29",  4,  -63,  1003,  0,  0,  0,  -11,  -25,  -36
3336275, 1710336569, "2024/3/13 13:29:29",  3,  -57,  1000,  0,  0,  -1,  -11,  -26,  -36
3336475, 1710336569, "2024/3/13 13:29:29",  8,  -51,  1003,  0,  0,  0,  -10,  -25,  -37
3336675, 1710336569, "2024/3/13 13:29:29",  -1,  -62,  1000,  0,  0,  -1,  -9,  -27,  -36
3336875, 1710336569, "2024/3/13 13:29:29",  5,  -62,  1002,  0,  0,  -1,  -10,  -26,  -36
3337075, 1710336570, "2024/3/13 13:29:30",  1,  -58,  1002,  0,  0,  -1,  -11,  -26,  -37
3337275, 1710336570, "2024/3/13 13:29:30",  8,  -61,  1001,  0,  0,  -1,  -10,  -25,  -38
3337475, 1710336570, "2024/3/13 13:29:30",  7,  -65,  1004,  0,  0,  -1,  -10,  -26,  -36
3337675, 1710336570, "2024/3/13 13:29:30",  17,  -61,  1006,  0,  0,  -1,  -9,  -27,  -36
3337875, 1710336570, "2024/3/13 13:29:30",  12,  -60,  1002,  0,  0,  -1,  -11,  -26,  -36
3338075, 1710336571, "2024/3/13 13:29:31",  6,  -59,  1008,  0,  0,  -1,  -9,  -27,  -37
3338275, 1710336571, "2024/3/13 13:29:31",  2,  -51,  1004,  0,  0,  -1,  -9,  -28,  -35
3338475, 1710336571, "2024/3/13 13:29:31",  3,  -51,  1003,  0,  0,  -1,  -11,  -25,  -37
3338675, 1710336571, "2024/3/13 13:29:31",  7,  -56,  1007,  0,  0,  0,  -11,  -26,  -37
3338875, 1710336571, "2024/3/13 13:29:31",  8,  -59,  1004,  0,  0,  0,  -11,  -26,  -37
3339075, 1710336572, "2024/3/13 13:29:32",  12,  -56,  1004,  0,  -1,  -1,  -12,  -27,  -39
3339275, 1710336572, "2024/3/13 13:29:32",  5,  -55,  1006,  0,  0,  0,  -12,  -26,  -36
3339475, 1710336572, "2024/3/13 13:29:32",  10,  -54,  1002,  0,  0,  0,  -9,  -26,  -37
3339675, 1710336572, "2024/3/13 13:29:32",  7,  -59,  1006,  0,  0,  -1,  -11,  -27,  -36
3339875, 1710336572, "2024/3/13 13:29:32",  18,  -58,  1018,  0,  0,  -1,  -10,  -27,  -38
3340075, 1710336573, "2024/3/13 13:29:33",  14,  -61,  1003,  0,  0,  -1,  -11,  -27,  -36
3340275, 1710336573, "2024/3/13 13:29:33",  8,  -61,  1004,  0,  0,  -1,  -11,  -26,  -37
3340475, 1710336573, "2024/3/13 13:29:33",  6,  -59,  1001,  0,  0,  -1,  -10,  -26,  -37
3340675, 1710336573, "2024/3/13 13:29:33",  10,  -60,  1000,  0,  0,  0,  -11,  -27,  -37
3340875, 1710336573, "2024/3/13 13:29:33",  5,  -54,  1002,  0,  0,  0,  -10,  -25,  -36
3341075, 1710336574, "2024/3/13 13:29:34",  4,  -55,  1005,  0,  0,  0,  -11,  -25,  -36
3341275, 1710336574, "2024/3/13 13:29:34",  7,  -54,  1005,  0,  0,  0,  -11,  -25,  -37
3341475, 1710336574, "2024/3/13 13:29:34",  9,  -52,  1000,  0,  0,  -1,  -11,  -26,  -36
3341675, 1710336574, "2024/3/13 13:29:34",  6,  -55,  1004,  0,  0,  0,  -9,  -26,  -37
3341875, 1710336574, "2024/3/13 13:29:34",  6,  -59,  1002,  0,  0,  -1,  -11,  -26,  -37
3342075, 1710336575, "2024/3/13 13:29:35",  4,  -55,  1003,  0,  -1,  -1,  -11,  -27,  -37
3342275, 1710336575, "2024/3/13 13:29:35",  7,  -57,  1001,  0,  0,  0,  -12,  -25,  -37
3342475, 1710336575, "2024/3/13 13:29:35",  4,  -62,  1008,  0,  0,  0,  -10,  -25,  -36
3342675, 1710336575, "2024/3/13 13:29:35",  9,  -62,  1000,  0,  0,  -1,  -10,  -25,  -37
3342875, 1710336575, "2024/3/13 13:29:35",  12,  -64,  1000,  0,  -1,  0,  -12,  -27,  -36
3343075, 1710336576, "2024/3/13 13:29:36",  9,  -56,  1006,  0,  0,  -1,  -10,  -27,  -37
3343275, 1710336576, "2024/3/13 13:29:36",  17,  -54,  1011,  0,  0,  -1,  -11,  -26,  -36
3343475, 1710336576, "2024/3/13 13:29:36",  11,  -62,  1006,  0,  0,  -1,  -11,  -26,  -36
3343675, 1710336576, "2024/3/13 13:29:36",  12,  -62,  1000,  0,  0,  0,  -11,  -27,  -38
3343875, 1710336576, "2024/3/13 13:29:36",  11,  -65,  994,  0,  0,  0,  -9,  -25,  -36
3344075, 1710336577, "2024/3/13 13:29:37",  11,  -61,  1002,  0,  0,  0,  -10,  -26,  -36
3344275, 1710336577, "2024/3/13 13:29:37",  7,  -60,  1007,  0,  0,  -1,  -11,  -27,  -37
3344475, 1710336577, "2024/3/13 13:29:37",  10,  -56,  1008,  0,  0,  -1,  -9,  -26,  -37
3344675, 1710336577, "2024/3/13 13:29:37",  9,  -57,  1003,  0,  -1,  -1,  -11,  -27,  -36
3344875, 1710336577, "2024/3/13 13:29:37",  8,  -54,  1002,  0,  0,  0,  -9,  -28,  -36
3345075, 1710336578, "2024/3/13 13:29:38",  8,  -59,  1003,  0,  0,  -1,  -11,  -27,  -36
3345275, 1710336578, "2024/3/13 13:29:38",  8,  -59,  1003,  0,  0,  0,  -10,  -27,  -38
3345475, 1710336578, "2024/3/13 13:29:38",  5,  -62,  1005,  0,  0,  -1,  -11,  -27,  -37
3345675, 1710336578, "2024/3/13 13:29:38",  4,  -64,  1002,  0,  -1,  -1,  -11,  -28,  -35
3345875, 1710336578, "2024/3/13 13:29:38",  -2,  -60,  1002,  0,  0,  0,  -10,  -25,  -36
3346075, 1710336579, "2024/3/13 13:29:39",  4,  -67,  1005,  0,  0,  0,  -11,  -28,  -37
3346275, 1710336579, "2024/3/13 13:29:39",  7,  -56,  1003,  0,  0,  0,  -10,  -26,  -37
3346475, 1710336579, "2024/3/13 13:29:39",  10,  -47,  1016,  0,  -1,  -1,  -10,  -26,  -36
3346675, 1710336579, "2024/3/13 13:29:39",  10,  -61,  1006,  0,  0,  -1,  -8,  -27,  -36
3346875, 1710336579, "2024/3/13 13:29:39",  2,  -60,  1003,  0,  0,  -1,  -9,  -28,  -36
3347075, 1710336580, "2024/3/13 13:29:40",  11,  -65,  1003,  0,  0,  -1,  -11,  -26,  -36
3347275, 1710336580, "2024/3/13 13:29:40",  10,  -63,  1003,  0,  0,  -1,  -11,  -26,  -37
3347475, 1710336580, "2024/3/13 13:29:40",  1,  -70,  1003,  0,  -1,  -1,  -11,  -27,  -36
3347675, 1710336580, "2024/3/13 13:29:40",  2,  -52,  1001,  0,  -1,  0,  -10,  -27,  -36
3347875, 1710336580, "2024/3/13 13:29:40",  4,  -57,  1006,  0,  0,  -1,  -11,  -25,  -36
3348075, 1710336581, "2024/3/13 13:29:41",  -4,  -78,  1006,  0,  0,  -1,  -12,  -26,  -37
3348275, 1710336581, "2024/3/13 13:29:41",  3,  -53,  994,  0,  -1,  -1,  -12,  -26,  -36
3348475, 1710336581, "2024/3/13 13:29:41",  10,  -53,  1002,  0,  -1,  -1,  -10,  -25,  -37
3348675, 1710336581, "2024/3/13 13:29:41",  9,  -58,  1006,  0,  0,  -1,  -10,  -25,  -38
3348875, 1710336581, "2024/3/13 13:29:41",  6,  -62,  1003,  0,  0,  0,  -10,  -27,  -34
3349075, 1710336582, "2024/3/13 13:29:42",  2,  -57,  1000,  0,  0,  0,  -11,  -27,  -36
3349275, 1710336582, "2024/3/13 13:29:42",  2,  -62,  1002,  0,  0,  0,  -11,  -27,  -37
3349475, 1710336582, "2024/3/13 13:29:42",  1,  -56,  1001,  0,  0,  -1,  -9,  -26,  -36
3349675, 1710336582, "2024/3/13 13:29:42",  0,  -56,  1002,  0,  0,  -1,  -9,  -25,  -38
3349875, 1710336582, "2024/3/13 13:29:42",  -4,  -58,  1000,  0,  0,  -1,  -11,  -27,  -37
3350075, 1710336583, "2024/3/13 13:29:43",  2,  -49,  1004,  0,  -1,  0,  -12,  -24,  -37
3350275, 1710336583, "2024/3/13 13:29:43",  3,  -60,  999,  0,  0,  -1,  -11,  -27,  -36
3350475, 1710336583, "2024/3/13 13:29:43",  10,  -64,  1005,  0,  0,  -1,  -11,  -25,  -35
3350675, 1710336583, "2024/3/13 13:29:43",  9,  -66,  1004,  0,  0,  0,  -12,  -27,  -36
3350875, 1710336583, "2024/3/13 13:29:43",  11,  -59,  1005,  0,  0,  0,  -13,  -27,  -37
3351075, 1710336584, "2024/3/13 13:29:44",  4,  -56,  1001,  0,  0,  -1,  -10,  -27,  -37
3351275, 1710336584, "2024/3/13 13:29:44",  9,  -66,  997,  0,  0,  0,  -10,  -28,  -37
3351475, 1710336584, "2024/3/13 13:29:44",  -1,  -62,  1004,  0,  0,  -1,  -8,  -26,  -38
3351675, 1710336584, "2024/3/13 13:29:44",  -4,  -57,  1006,  1,  0,  0,  -11,  -28,  -36
3351875, 1710336584, "2024/3/13 13:29:44",  12,  -50,  1004,  0,  0,  -1,  -12,  -25,  -36
3352075, 1710336585, "2024/3/13 13:29:45",  5,  -59,  1005,  0,  0,  -1,  -11,  -27,  -36
3352275, 1710336585, "2024/3/13 13:29:45",  11,  -64,  1010,  0,  0,  0,  -10,  -26,  -37
3352475, 1710336585, "2024/3/13 13:29:45",  5,  -55,  1001,  0,  0,  0,  -11,  -27,  -36
3352675, 1710336585, "2024/3/13 13:29:45",  4,  -59,  997,  0,  -1,  -1,  -11,  -26,  -37
3352875, 1710336585, "2024/3/13 13:29:45",  6,  -64,  1004,  0,  0,  -1,  -11,  -26,  -37
3353075, 1710336586, "2024/3/13 13:29:46",  5,  -58,  1001,  0,  0,  -1,  -10,  -26,  -38
3353275, 1710336586, "2024/3/13 13:29:46",  5,  -61,  1002,  0,  0,  0,  -10,  -26,  -36
3353475, 1710336586, "2024/3/13 13:29:46",  -2,  -61,  997,  0,  0,  0,  -11,  -28,  -38
3353675, 1710336586, "2024/3/13 13:29:46",  11,  -59,  1007,  0,  0,  -1,  -11,  -26,  -37
3353875, 1710336586, "2024/3/13 13:29:46",  6,  -59,  1002,  0,  -1,  -1,  -10,  -26,  -36
3354075, 1710336587, "2024/3/13 13:29:47",  8,  -58,  1006,  0,  0,  -1,  -10,  -27,  -38
3354275, 1710336587, "2024/3/13 13:29:47",  23,  -62,  1013,  0,  0,  -1,  -12,  -27,  -37
3354475, 1710336587, "2024/3/13 13:29:47",  4,  -60,  1003,  0,  0,  -1,  -10,  -27,  -37
3354675, 1710336587, "2024/3/13 13:29:47",  13,  -55,  997,  0,  0,  -1,  -11,  -27,  -36
3354875, 1710336587, "2024/3/13 13:29:47",  3,  -56,  1005,  0,  0,  0,  -11,  -27,  -37
3355075, 1710336588, "2024/3/13 13:29:48",  4,  -57,  1002,  0,  0,  0,  -11,  -27,  -36
3355275, 1710336588, "2024/3/13 13:29:48",  7,  -62,  1003,  0,  0,  -1,  -11,  -28,  -36
3355475, 1710336588, "2024/3/13 13:29:48",  -1,  -56,  998,  0,  0,  0,  -11,  -27,  -34
3355675, 1710336588, "2024/3/13 13:29:48",  7,  -65,  1000,  0,  0,  -1,  -10,  -25,  -36
3355875, 1710336588, "2024/3/13 13:29:48",  8,  -57,  1002,  0,  0,  -1,  -11,  -27,  -37
3356075, 1710336589, "2024/3/13 13:29:49",  -4,  -64,  1004,  0,  0,  -1,  -10,  -28,  -37
3356275, 1710336589, "2024/3/13 13:29:49",  4,  -69,  1002,  0,  0,  -1,  -11,  -27,  -37
3356475, 1710336589, "2024/3/13 13:29:49",  4,  -58,  1004,  0,  0,  0,  -9,  -27,  -38
3356675, 1710336589, "2024/3/13 13:29:49",  2,  -61,  1005,  0,  0,  0,  -10,  -27,  -36
3356875, 1710336589, "2024/3/13 13:29:49",  1,  -62,  1001,  0,  0,  0,  -11,  -26,  -37
3357075, 1710336590, "2024/3/13 13:29:50",  0,  -57,  1004,  0,  0,  -1,  -12,  -27,  -37
3357275, 1710336590, "2024/3/13 13:29:50",  5,  -56,  1000,  0,  0,  -1,  -11,  -27,  -37
3357475, 1710336590, "2024/3/13 13:29:50",  2,  -57,  1005,  0,  0,  -1,  -10,  -26,  -36
3357675, 1710336590, "2024/3/13 13:29:50",  10,  -61,  1004,  0,  0,  0,  -11,  -27,  -36
3357875, 1710336590, "2024/3/13 13:29:50",  7,  -57,  1005,  0,  0,  -1,  -12,  -27,  -36
3358075, 1710336591, "2024/3/13 13:29:51",  3,  -58,  1002,  0,  0,  -1,  -9,  -26,  -37
3358275, 1710336591, "2024/3/13 13:29:51",  4,  -57,  1002,  0,  0,  0,  -9,  -27,  -37
3358475, 1710336591, "2024/3/13 13:29:51",  -9,  -46,  1005,  0,  -1,  -1,  -11,  -26,  -37
3358675, 1710336591, "2024/3/13 13:29:51",  2,  -55,  1006,  0,  -1,  -1,  -10,  -26,  -37
3358875, 1710336591, "2024/3/13 13:29:51",  -6,  -49,  1007,  0,  -1,  -1,  -12,  -25,  -37
3359075, 1710336592, "2024/3/13 13:29:52",  -2,  -63,  1007,  0,  0,  -1,  -10,  -28,  -36
3359275, 1710336592, "2024/3/13 13:29:52",  -3,  -58,  1006,  0,  0,  -1,  -10,  -27,  -36
3359475, 1710336592, "2024/3/13 13:29:52",  2,  -48,  1004,  0,  0,  0,  -8,  -27,  -36
3359675, 1710336592, "2024/3/13 13:29:52",  -2,  -61,  1006,  0,  0,  -1,  -10,  -27,  -36
3359875, 1710336592, "2024/3/13 13:29:52",  5,  -59,  999,  0,  0,  0,  -11,  -25,  -36
3360075, 1710336593, "2024/3/13 13:29:53",  1,  -63,  1000,  0,  0,  -1,  -8,  -25,  -36
3360275, 1710336593, "2024/3/13 13:29:53",  3,  -55,  1003,  0,  0,  -1,  -10,  -27,  -37
3360475, 1710336593, "2024/3/13 13:29:53",  6,  -56,  1004,  0,  0,  0,  -10,  -27,  -36
3360675, 1710336593, "2024/3/13 13:29:53",  9,  -64,  1006,  0,  -1,  -1,  -11,  -24,  -36
3360875, 1710336593, "2024/3/13 13:29:53",  14,  -55,  1005,  0,  0,  -1,  -10,  -26,  -36
3361075, 1710336594, "2024/3/13 13:29:54",  12,  -57,  1003,  0,  0,  -1,  -12,  -26,  -36
3361275, 1710336594, "2024/3/13 13:29:54",  11,  -62,  1009,  0,  0,  -1,  -11,  -25,  -36
3361475, 1710336594, "2024/3/13 13:29:54",  11,  -64,  1003,  0,  0,  -1,  -11,  -26,  -36
3361675, 1710336594, "2024/3/13 13:29:54",  7,  -61,  1004,  0,  0,  0,  -11,  -27,  -36
3361875, 1710336594, "2024/3/13 13:29:54",  7,  -64,  1004,  0,  0,  0,  -10,  -26,  -36
3362075, 1710336595, "2024/3/13 13:29:55",  5,  -55,  1006,  0,  -1,  -1,  -10,  -27,  -37
3362275, 1710336595, "2024/3/13 13:29:55",  2,  -56,  1001,  0,  0,  0,  -11,  -26,  -37
3362475, 1710336595, "2024/3/13 13:29:55",  1,  -63,  1002,  0,  0,  -1,  -11,  -26,  -36
3362675, 1710336595, "2024/3/13 13:29:55",  3,  -55,  1005,  0,  0,  -1,  -9,  -27,  -36
3362875, 1710336595, "2024/3/13 13:29:55",  3,  -62,  1000,  0,  0,  -1,  -11,  -28,  -35
3363075, 1710336596, "2024/3/13 13:29:56",  5,  -57,  1002,  0,  0,  -1,  -10,  -25,  -36
3363275, 1710336596, "2024/3/13 13:29:56",  5,  -56,  1005,  0,  -1,  -1,  -12,  -26,  -36
3363475, 1710336596, "2024/3/13 13:29:56",  2,  -57,  999,  0,  -1,  -1,  -11,  -27,  -36
3363675, 1710336596, "2024/3/13 13:29:56",  3,  -63,  1003,  0,  0,  -1,  -10,  -26,  -37
3363875, 1710336596, "2024/3/13 13:29:56",  3,  -60,  1002,  0,  0,  -1,  -11,  -27,  -37
3364075, 1710336597, "2024/3/13 13:29:57",  2,  -48,  1005,  0,  0,  0,  -11,  -26,  -37
3364275, 1710336597, "2024/3/13 13:29:57",  1,  -55,  1003,  0,  0,  0,  -12,  -26,  -36
3364475, 1710336597, "2024/3/13 13:29:57",  5,  -57,  1001,  0,  0,  -1,  -9,  -26,  -37
3364675, 1710336597, "2024/3/13 13:29:57",  8,  -59,  1002,  0,  0,  -1,  -10,  -26,  -36
3364875, 1710336597, "2024/3/13 13:29:57",  2,  -64,  1000,  0,  -1,  0,  -11,  -25,  -39
3365075, 1710336598, "2024/3/13 13:29:58",  6,  -62,  1007,  0,  0,  -1,  -10,  -27,  -37
3365275, 1710336598, "2024/3/13 13:29:58",  3,  -60,  1011,  0,  0,  0,  -12,  -27,  -38
3365475, 1710336598, "2024/3/13 13:29:58",  3,  -57,  1002,  0,  0,  0,  -12,  -28,  -37
3365675, 1710336598, "2024/3/13 13:29:58",  2,  -55,  1001,  0,  0,  -1,  -11,  -27,  -38
3365875, 1710336598, "2024/3/13 13:29:58",  5,  -64,  1001,  0,  0,  0,  -12,  -26,  -37
3366075, 1710336599, "2024/3/13 13:29:59",  3,  -64,  994,  0,  0,  0,  -12,  -27,  -38
3366275, 1710336599, "2024/3/13 13:29:59",  5,  -60,  1003,  0,  0,  -1,  -10,  -26,  -36
3366475, 1710336599, "2024/3/13 13:29:59",  -5,  -66,  1003,  0,  0,  -1,  -9,  -26,  -37
3366675, 1710336599, "2024/3/13 13:29:59",  5,  -59,  1002,  0,  0,  0,  -11,  -27,  -37
3366875, 1710336599, "2024/3/13 13:29:59",  5,  -56,  1003,  0,  0,  -1,  -11,  -26,  -36
3367075, 1710336600, "2024/3/13 13:30:0",  9,  -61,  1001,  0,  0,  -1,  -11,  -26,  -37
3367275, 1710336600, "2024/3/13 13:30:0",  8,  -59,  1002,  0,  -1,  0,  -10,  -26,  -36
3367475, 1710336600, "2024/3/13 13:30:0",  -2,  -66,  1001,  0,  0,  -1,  -11,  -27,  -36
3367675, 1710336600, "2024/3/13 13:30:0",  -1,  -53,  1010,  0,  0,  -1,  -12,  -26,  -37
3367875, 1710336600, "2024/3/13 13:30:0",  1,  -64,  1000,  0,  -1,  -1,  -10,  -27,  -37
3368075, 1710336601, "2024/3/13 13:30:1",  7,  -64,  1000,  0,  0,  0,  -12,  -27,  -36
3368275, 1710336601, "2024/3/13 13:30:1",  5,  -64,  1013,  0,  0,  -1,  -12,  -28,  -37
3368475, 1710336601, "2024/3/13 13:30:1",  2,  -62,  998,  0,  0,  0,  -11,  -27,  -37
3368675, 1710336601, "2024/3/13 13:30:1",  12,  -60,  1009,  0,  0,  0,  -11,  -27,  -35
3368875, 1710336601, "2024/3/13 13:30:1",  9,  -60,  1003,  0,  0,  0,  -10,  -25,  -36
3369075, 1710336602, "2024/3/13 13:30:2",  6,  -53,  1004,  0,  0,  0,  -12,  -28,  -37
3369275, 1710336602, "2024/3/13 13:30:2",  6,  -53,  1006,  0,  -1,  0,  -10,  -27,  -39
3369475, 1710336602, "2024/3/13 13:30:2",  9,  -57,  1007,  0,  0,  0,  -10,  -26,  -36
3369675, 1710336602, "2024/3/13 13:30:2",  11,  -59,  1004,  0,  0,  -1,  -10,  -26,  -36
3369875, 1710336602, "2024/3/13 13:30:2",  5,  -63,  1005,  0,  0,  0,  -10,  -27,  -37
3370075, 1710336603, "2024/3/13 13:30:3",  11,  -57,  1004,  0,  0,  -1,  -10,  -26,  -35
3370275, 1710336603, "2024/3/13 13:30:3",  3,  -56,  1007,  0,  0,  -1,  -12,  -27,  -35
3370475, 1710336603, "2024/3/13 13:30:3",  9,  -54,  1003,  0,  0,  -1,  -10,  -25,  -37
3370675, 1710336603, "2024/3/13 13:30:3",  10,  -60,  1003,  0,  0,  0,  -10,  -25,  -36
3370875, 1710336603, "2024/3/13 13:30:3",  8,  -58,  1001,  0,  0,  -1,  -11,  -27,  -37
3371075, 1710336604, "2024/3/13 13:30:4",  4,  -58,  1004,  0,  0,  -1,  -11,  -27,  -35
3371275, 1710336604, "2024/3/13 13:30:4",  5,  -62,  1003,  0,  0,  -1,  -9,  -26,  -36
3371475, 1710336604, "2024/3/13 13:30:4",  -6,  -62,  999,  0,  0,  -1,  -12,  -26,  -36
3371675, 1710336604, "2024/3/13 13:30:4",  3,  -62,  1013,  0,  0,  -1,  -11,  -26,  -37
3371875, 1710336604, "2024/3/13 13:30:4",  3,  -63,  1003,  0,  0,  0,  -11,  -27,  -39
3372075, 1710336605, "2024/3/13 13:30:5",  6,  -63,  1003,  0,  0,  -1,  -10,  -27,  -36
3372275, 1710336605, "2024/3/13 13:30:5",  6,  -60,  1002,  0,  0,  0,  -9,  -26,  -37
3372475, 1710336605, "2024/3/13 13:30:5",  0,  -64,  1004,  0,  0,  -1,  -12,  -27,  -36
3372675, 1710336605, "2024/3/13 13:30:5",  1,  -55,  1003,  0,  0,  -1,  -11,  -27,  -36
3372875, 1710336605, "2024/3/13 13:30:5",  3,  -64,  1005,  0,  0,  -1,  -10,  -27,  -36
3373075, 1710336606, "2024/3/13 13:30:6",  7,  -52,  1004,  0,  0,  -1,  -11,  -27,  -37
3373275, 1710336606, "2024/3/13 13:30:6",  1,  -60,  1004,  0,  0,  -1,  -10,  -26,  -36
3373475, 1710336606, "2024/3/13 13:30:6",  3,  -60,  1002,  0,  0,  0,  -10,  -27,  -36
3373675, 1710336606, "2024/3/13 13:30:6",  4,  -58,  1006,  0,  0,  -1,  -10,  -26,  -37
3373875, 1710336606, "2024/3/13 13:30:6",  5,  -59,  1003,  0,  -1,  0,  -10,  -27,  -36
3374075, 1710336607, "2024/3/13 13:30:7",  5,  -61,  1002,  0,  0,  -1,  -12,  -25,  -37
3374275, 1710336607, "2024/3/13 13:30:7",  7,  -66,  1002,  0,  0,  -1,  -11,  -25,  -37
3374475, 1710336607, "2024/3/13 13:30:7",  11,  -67,  1003,  0,  0,  -1,  -11,  -26,  -37
3374675, 1710336607, "2024/3/13 13:30:7",  3,  -62,  1002,  0,  0,  -1,  -10,  -27,  -37
3374875, 1710336607, "2024/3/13 13:30:7",  8,  -57,  1002,  0,  0,  0,  -10,  -27,  -36
3375075, 1710336608, "2024/3/13 13:30:8",  10,  -60,  1004,  0,  0,  0,  -11,  -26,  -37
3375275, 1710336608, "2024/3/13 13:30:8",  4,  -61,  1001,  0,  0,  -1,  -11,  -26,  -36
3375475, 1710336608, "2024/3/13 13:30:8",  7,  -63,  1007,  0,  0,  -1,  -11,  -27,  -38
3375675, 1710336608, "2024/3/13 13:30:8",  6,  -61,  992,  0,  0,  -1,  -11,  -26,  -38
3375875, 1710336608, "2024/3/13 13:30:8",  7,  -62,  1006,  0,  0,  0,  -10,  -27,  -37
3376075, 1710336609, "2024/3/13 13:30:9",  6,  -60,  1004,  0,  0,  0,  -10,  -26,  -36
3376275, 1710336609, "2024/3/13 13:30:9",  11,  -60,  1001,  0,  0,  -1,  -12,  -25,  -36
3376475, 1710336609, "2024/3/13 13:30:9",  3,  -64,  1001,  0,  0,  0,  -11,  -25,  -35
3376675, 1710336609, "2024/3/13 13:30:9",  8,  -59,  995,  0,  0,  0,  -10,  -26,  -37
3376875, 1710336609, "2024/3/13 13:30:9",  7,  -49,  1005,  0,  0,  -1,  -11,  -27,  -36
3377075, 1710336610, "2024/3/13 13:30:10",  8,  -54,  1002,  0,  0,  -1,  -11,  -27,  -36
3377275, 1710336610, "2024/3/13 13:30:10",  6,  -62,  1001,  0,  0,  -1,  -11,  -28,  -36
3377475, 1710336610, "2024/3/13 13:30:10",  -1,  -64,  1008,  0,  0,  0,  -11,  -27,  -36
3377675, 1710336610, "2024/3/13 13:30:10",  1,  -59,  1005,  0,  0,  -1,  -10,  -26,  -37
3377875, 1710336610, "2024/3/13 13:30:10",  4,  -62,  1000,  0,  0,  -1,  -10,  -26,  -36
3378075, 1710336611, "2024/3/13 13:30:11",  5,  -62,  1004,  0,  0,  0,  -10,  -26,  -36
3378275, 1710336611, "2024/3/13 13:30:11",  11,  -58,  1005,  0,  0,  -1,  -11,  -26,  -36
3378475, 1710336611, "2024/3/13 13:30:11",  15,  -60,  1004,  0,  0,  0,  -11,  -27,  -38
3378675, 1710336611, "2024/3/13 13:30:11",  7,  -57,  1003,  0,  0,  -1,  -11,  -26,  -37
3378875, 1710336611, "2024/3/13 13:30:11",  9,  -56,  1007,  0,  0,  -1,  -9,  -27,  -36
3379075, 1710336612, "2024/3/13 13:30:12",  12,  -60,  1003,  0,  0,  0,  -12,  -27,  -36
3379275, 1710336612, "2024/3/13 13:30:12",  6,  -59,  1006,  0,  0,  -1,  -10,  -26,  -37
3379475, 1710336612, "2024/3/13 13:30:12",  5,  -60,  1003,  0,  0,  -1,  -12,  -26,  -37
3379675, 1710336612, "2024/3/13 13:30:12",  2,  -60,  1001,  0,  0,  -1,  -10,  -26,  -36
3379875, 1710336612, "2024/3/13 13:30:12",  9,  -60,  1002,  0,  0,  -1,  -10,  -26,  -38
3380075, 1710336613, "2024/3/13 13:30:13",  3,  -60,  1003,  0,  0,  -1,  -9,  -27,  -36
3380275, 1710336613, "2024/3/13 13:30:13",  5,  -63,  1002,  0,  0,  -1,  -10,  -25,  -36
3380475, 1710336613, "2024/3/13 13:30:13",  10,  -60,  1004,  0,  0,  0,  -12,  -26,  -36
3380675, 1710336613, "2024/3/13 13:30:13",  8,  -60,  1006,  0,  0,  -1,  -10,  -26,  -37
3380875, 1710336613, "2024/3/13 13:30:13",  9,  -60,  1002,  0,  -1,  -1,  -12,  -25,  -36
3381075, 1710336614, "2024/3/13 13:30:14",  5,  -64,  1003,  0,  -1,  -1,  -8,  -27,  -36
3381275, 1710336614, "2024/3/13 13:30:14",  9,  -60,  1003,  0,  0,  0,  -10,  -27,  -37
3381475, 1710336614, "2024/3/13 13:30:14",  2,  -71,  1000,  0,  0,  -1,  -9,  -26,  -37
3381675, 1710336614, "2024/3/13 13:30:14",  12,  -70,  1012,  0,  -1,  0,  -10,  -26,  -37
3381875, 1710336614, "2024/3/13 13:30:14",  7,  -58,  1000,  0,  -1,  0,  -10,  -27,  -36
3382075, 1710336615, "2024/3/13 13:30:15",  7,  -61,  1000,  0,  0,  -1,  -11,  -27,  -37
3382275, 1710336615, "2024/3/13 13:30:15",  15,  -64,  1003,  0,  0,  0,  -11,  -27,  -36
3382475, 1710336615, "2024/3/13 13:30:15",  8,  -59,  1004,  0,  0,  -1,  -10,  -26,  -37
3382675, 1710336615, "2024/3/13 13:30:15",  8,  -55,  1008,  0,  0,  -1,  -11,  -28,  -36
3382875, 1710336615, "2024/3/13 13:30:15",  6,  -62,  1001,  0,  -1,  -1,  -11,  -25,  -36
3383075, 1710336616, "2024/3/13 13:30:16",  10,  -65,  1003,  0,  0,  0,  -10,  -27,  -37
3383275, 1710336616, "2024/3/13 13:30:16",  16,  -64,  1000,  0,  0,  -1,  -10,  -27,  -37
3383475, 1710336616, "2024/3/13 13:30:16",  8,  -57,  1000,  0,  0,  0,  -12,  -25,  -37
3383675, 1710336616, "2024/3/13 13:30:16",  3,  -53,  1002,  0,  0,  -1,  -9,  -27,  -36
3383875, 1710336616, "2024/3/13 13:30:16",  3,  -61,  1004,  0,  0,  -1,  -11,  -26,  -36
3384075, 1710336617, "2024/3/13 13:30:17",  5,  -60,  1003,  0,  0,  -1,  -10,  -26,  -37
3384275, 1710336617, "2024/3/13 13:30:17",  2,  -56,  1002,  0,  -1,  0,  -10,  -27,  -37
3384475, 1710336617, "2024/3/13 13:30:17",  8,  -48,  1001,  0,  0,  0,  -10,  -26,  -36
3384675, 1710336617, "2024/3/13 13:30:17",  2,  -56,  1000,  0,  0,  -1,  -10,  -25,  -36
3384875, 1710336617, "2024/3/13 13:30:17",  3,  -56,  1006,  1,  0,  0,  -11,  -28,  -36
3385075, 1710336618, "2024/3/13 13:30:18",  10,  -58,  1009,  0,  0,  -1,  -9,  -28,  -37
3385275, 1710336618, "2024/3/13 13:30:18",  4,  -64,  1001,  0,  0,  0,  -9,  -25,  -37
3385475, 1710336618, "2024/3/13 13:30:18",  5,  -57,  1002,  0,  0,  0,  -10,  -26,  -36
3385675, 1710336618, "2024/3/13 13:30:18",  11,  -62,  1002,  0,  0,  -1,  -10,  -26,  -37
3385875, 1710336618, "2024/3/13 13:30:18",  6,  -51,  1004,  0,  0,  0,  -10,  -28,  -36
3386075, 1710336619, "2024/3/13 13:30:19",  7,  -58,  1004,  0,  0,  -1,  -11,  -27,  -37
3386275, 1710336619, "2024/3/13 13:30:19",  7,  -56,  1001,  0,  0,  -1,  -11,  -29,  -37
3386475, 1710336619, "2024/3/13 13:30:19",  4,  -57,  998,  0,  -1,  -1,  -11,  -26,  -36
3386675, 1710336619, "2024/3/13 13:30:19",  7,  -63,  1009,  0,  0,  -1,  -10,  -27,  -36
3386875, 1710336619, "2024/3/13 13:30:19",  15,  -63,  1006,  0,  0,  -1,  -9,  -27,  -36
3387075, 1710336620, "2024/3/13 13:30:20",  8,  -56,  1002,  0,  0,  -1,  -10,  -25,  -37
3387275, 1710336620, "2024/3/13 13:30:20",  9,  -59,  1004,  0,  -1,  -1,  -11,  -27,  -37
3387475, 1710336620, "2024/3/13 13:30:20",  9,  -66,  1006,  0,  -1,  0,  -12,  -27,  -36
3387675, 1710336620, "2024/3/13 13:30:20",  20,  -54,  1007,  0,  0,  -1,  -11,  -27,  -35
3387875, 1710336620, "2024/3/13 13:30:20",  17,  -59,  999,  0,  0,  0,  -12,  -26,  -37
3388075, 1710336621, "2024/3/13 13:30:21",  8,  -62,  1003,  0,  0,  -1,  -11,  -25,  -38
3388275, 1710336621, "2024/3/13 13:30:21",  6,  -62,  1002,  0,  0,  0,  -9,  -27,  -35
3388475, 1710336621, "2024/3/13 13:30:21",  10,  -60,  1003,  0,  0,  -1,  -10,  -26,  -37
3388675, 1710336621, "2024/3/13 13:30:21",  6,  -64,  1005,  0,  0,  -1,  -9,  -27,  -36
3388875, 1710336621, "2024/3/13 13:30:21",  5,  -63,  1004,  0,  0,  -1,  -12,  -26,  -37
3389075, 1710336622, "2024/3/13 13:30:22",  5,  -61,  1000,  0,  0,  -1,  -12,  -27,  -36
3389275, 1710336622, "2024/3/13 13:30:22",  9,  -60,  1004,  0,  -1,  -1,  -11,  -28,  -37
3389475, 1710336622, "2024/3/13 13:30:22",  5,  -63,  1002,  0,  0,  -1,  -12,  -27,  -36
3389675, 1710336622, "2024/3/13 13:30:22",  6,  -57,  1005,  0,  0,  -1,  -11,  -26,  -36
3389875, 1710336622, "2024/3/13 13:30:22",  6,  -59,  997,  0,  0,  -1,  -9,  -26,  -36
3390075, 1710336623, "2024/3/13 13:30:23",  4,  -57,  1000,  0,  0,  0,  -11,  -25,  -36
3390275, 1710336623, "2024/3/13 13:30:23",  6,  -58,  1002,  0,  0,  -1,  -10,  -26,  -37
3390475, 1710336623, "2024/3/13 13:30:23",  5,  -63,  1005,  0,  0,  0,  -9,  -25,  -37
3390675, 1710336623, "2024/3/13 13:30:23",  8,  -56,  1003,  0,  0,  -1,  -11,  -26,  -37
3390875, 1710336623, "2024/3/13 13:30:23",  5,  -56,  1002,  0,  0,  -1,  -11,  -26,  -37
3391075, 1710336624, "2024/3/13 13:30:24",  2,  -58,  1003,  0,  -1,  -1,  -9,  -25,  -37
3391275, 1710336624, "2024/3/13 13:30:24",  0,  -57,  1005,  0,  -1,  -1,  -10,  -28,  -37
3391475, 1710336624, "2024/3/13 13:30:24",  3,  -60,  1005,  0,  0,  -1,  -11,  -28,  -36
3391675, 1710336624, "2024/3/13 13:30:24",  6,  -57,  1006,  0,  0,  -1,  -11,  -27,  -36
3391875, 1710336624, "2024/3/13 13:30:24",  7,  -58,  1002,  0,  0,  -1,  -10,  -25,  -38
3392075, 1710336625, "2024/3/13 13:30:25",  8,  -57,  1002,  0,  0,  0,  -11,  -27,  -37
3392275, 1710336625, "2024/3/13 13:30:25",  9,  -62,  1001,  0,  0,  0,  -10,  -25,  -37
3392475, 1710336625, "2024/3/13 13:30:25",  11,  -59,  1002,  0,  0,  -1,  -11,  -26,  -36
3392675, 1710336625, "2024/3/13 13:30:25",  6,  -59,  1001,  0,  -1,  -1,  -11,  -27,  -36
3392875, 1710336625, "2024/3/13 13:30:25",  12,  -64,  1003,  0,  0,  -1,  -11,  -28,  -36
3393075, 1710336626, "2024/3/13 13:30:26",  11,  -61,  1003,  0,  -1,  -1,  -9,  -27,  -36
3393275, 1710336626, "2024/3/13 13:30:26",  16,  -54,  1002,  0,  -1,  -1,  -10,  -27,  -36
3393475, 1710336626, "2024/3/13 13:30:26",  9,  -59,  1001,  0,  0,  0,  -10,  -27,  -37
3393675, 1710336626, "2024/3/13 13:30:26",  12,  -59,  1006,  0,  0,  -1,  -10,  -27,  -37
3393875, 1710336626, "2024/3/13 13:30:26",  5,  -74,  990,  0,  0,  -1,  -11,  -27,  -36
3394075, 1710336627, "2024/3/13 13:30:27",  9,  -68,  1000,  1,  0,  -1,  -9,  -27,  -36
3394275, 1710336627, "2024/3/13 13:30:27",  11,  -62,  1004,  0,  0,  0,  -11,  -26,  -37
3394475, 1710336627, "2024/3/13 13:30:27",  3,  -60,  1006,  0,  0,  -1,  -10,  -28,  -38
3394675, 1710336627, "2024/3/13 13:30:27",  7,  -59,  1003,  0,  0,  -1,  -10,  -27,  -37
3394875, 1710336627, "2024/3/13 13:30:27",  5,  -59,  1003,  0,  0,  0,  -9,  -25,  -37
3395075, 1710336628, "2024/3/13 13:30:28",  2,  -62,  1004,  0,  -1,  -1,  -11,  -26,  -37
3395275, 1710336628, "2024/3/13 13:30:28",  1,  -58,  1002,  0,  0,  -1,  -10,  -27,  -37
3395475, 1710336628, "2024/3/13 13:30:28",  4,  -59,  1005,  0,  0,  -1,  -11,  -27,  -36
3395675, 1710336628, "2024/3/13 13:30:28",  6,  -54,  999,  0,  0,  0,  -12,  -28,  -37
3395875, 1710336628, "2024/3/13 13:30:28",  6,  -56,  1005,  0,  -1,  -1,  -11,  -26,  -36
3396075, 1710336629, "2024/3/13 13:30:29",  8,  -57,  1007,  0,  0,  -1,  -10,  -25,  -37
3396275, 1710336629, "2024/3/13 13:30:29",  1,  -62,  1004,  0,  0,  0,  -11,  -27,  -36
3396475, 1710336629, "2024/3/13 13:30:29",  1,  -53,  1005,  0,  -1,  -1,  -11,  -26,  -36
3396675, 1710336629, "2024/3/13 13:30:29",  0,  -56,  1005,  0,  0,  -1,  -9,  -27,  -36
3396875, 1710336629, "2024/3/13 13:30:29",  7,  -59,  1002,  0,  0,  -1,  -12,  -27,  -37
3397075, 1710336630, "2024/3/13 13:30:30",  7,  -61,  1006,  0,  0,  -1,  -11,  -27,  -36
3397275, 1710336630, "2024/3/13 13:30:30",  5,  -53,  1002,  0,  0,  -1,  -10,  -25,  -37
3397475, 1710336630, "2024/3/13 13:30:30",  6,  -58,  1002,  0,  0,  0,  -9,  -25,  -36
3397675, 1710336630, "2024/3/13 13:30:30",  4,  -61,  1008,  0,  0,  -1,  -12,  -27,  -37
3397875, 1710336630, "2024/3/13 13:30:30",  7,  -64,  1007,  0,  0,  -1,  -10,  -26,  -37
3398075, 1710336631, "2024/3/13 13:30:31",  6,  -54,  1002,  0,  0,  -1,  -11,  -27,  -38
3398275, 1710336631, "2024/3/13 13:30:31",  7,  -64,  1001,  0,  0,  -1,  -9,  -27,  -36
3398475, 1710336631, "2024/3/13 13:30:31",  5,  -62,  1005,  0,  0,  -1,  -11,  -26,  -38
3398675, 1710336631, "2024/3/13 13:30:31",  4,  -64,  1000,  0,  -1,  0,  -13,  -26,  -36
3398875, 1710336631, "2024/3/13 13:30:31",  4,  -52,  1005,  0,  0,  0,  -9,  -27,  -38
3399075, 1710336632, "2024/3/13 13:30:32",  5,  -54,  998,  0,  -1,  0,  -11,  -26,  -38
3399275, 1710336632, "2024/3/13 13:30:32",  0,  -56,  1005,  0,  0,  0,  -11,  -27,  -37
3399475, 1710336632, "2024/3/13 13:30:32",  3,  -61,  1005,  0,  0,  0,  -11,  -26,  -37
3399675, 1710336632, "2024/3/13 13:30:32",  4,  -53,  1005,  0,  0,  0,  -11,  -26,  -36
3399875, 1710336632, "2024/3/13 13:30:32",  7,  -56,  1004,  0,  -1,  0,  -11,  -25,  -37
3400075, 1710336633, "2024/3/13 13:30:33",  5,  -55,  1006,  0,  0,  -1,  -11,  -27,  -37
3400275, 1710336633, "2024/3/13 13:30:33",  3,  -57,  1004,  0,  0,  -1,  -10,  -27,  -37
3400475, 1710336633, "2024/3/13 13:30:33",  8,  -55,  1000,  0,  0,  0,  -11,  -27,  -36
3400675, 1710336633, "2024/3/13 13:30:33",  4,  -62,  1002,  0,  0,  -1,  -11,  -27,  -37
3400875, 1710336633, "2024/3/13 13:30:33",  3,  -52,  1004,  0,  0,  0,  -9,  -27,  -38
3401075, 1710336634, "2024/3/13 13:30:34",  0,  -61,  1006,  0,  -1,  -1,  -10,  -27,  -36
3401275, 1710336634, "2024/3/13 13:30:34",  3,  -56,  1005,  0,  0,  -1,  -10,  -27,  -37
3401475, 1710336634, "2024/3/13 13:30:34",  3,  -54,  1002,  0,  0,  -1,  -11,  -26,  -36
3401675, 1710336634, "2024/3/13 13:30:34",  4,  -60,  1003,  0,  -1,  0,  -10,  -25,  -35
3401875, 1710336634, "2024/3/13 13:30:34",  4,  -55,  1006,  0,  0,  -1,  -10,  -25,  -37
3402075, 1710336635, "2024/3/13 13:30:35",  2,  -57,  1000,  0,  0,  -1,  -11,  -26,  -35
3402275, 1710336635, "2024/3/13 13:30:35",  5,  -58,  1004,  0,  0,  0,  -11,  -27,  -36
3402475, 1710336635, "2024/3/13 13:30:35",  8,  -52,  1006,  0,  0,  0,  -10,  -26,  -35
3402675, 1710336635, "2024/3/13 13:30:35",  5,  -60,  1004,  0,  0,  -1,  -12,  -26,  -37
3402875, 1710336635, "2024/3/13 13:30:35",  4,  -57,  1005,  0,  0,  -1,  -9,  -26,  -37
3403075, 1710336636, "2024/3/13 13:30:36",  3,  -55,  1003,  0,  0,  -1,  -9,  -26,  -37
3403275, 1710336636, "2024/3/13 13:30:36",  3,  -58,  1003,  0,  0,  -1,  -11,  -26,  -36
3403475, 1710336636, "2024/3/13 13:30:36",  3,  -58,  1005,  0,  -1,  0,  -11,  -28,  -38
3403675, 1710336636, "2024/3/13 13:30:36",  4,  -57,  1002,  0,  0,  -1,  -11,  -27,  -38
3403875, 1710336636, "2024/3/13 13:30:36",  6,  -53,  1006,  0,  0,  -1,  -11,  -28,  -37
3404075, 1710336637, "2024/3/13 13:30:37",  6,  -64,  1006,  0,  0,  0,  -10,  -25,  -36
3404275, 1710336637, "2024/3/13 13:30:37",  4,  -54,  1002,  0,  0,  -1,  -12,  -25,  -37
3404475, 1710336637, "2024/3/13 13:30:37",  2,  -55,  1001,  0,  -1,  -1,  -11,  -27,  -36
3404675, 1710336637, "2024/3/13 13:30:37",  6,  -55,  1002,  0,  0,  -1,  -11,  -26,  -37
3404875, 1710336637, "2024/3/13 13:30:37",  11,  -56,  1000,  0,  -1,  -1,  -12,  -28,  -37
3405075, 1710336638, "2024/3/13 13:30:38",  -2,  -58,  999,  0,  0,  -1,  -11,  -26,  -36
3405275, 1710336638, "2024/3/13 13:30:38",  6,  -53,  1000,  0,  -1,  -1,  -11,  -27,  -36
3405475, 1710336638, "2024/3/13 13:30:38",  7,  -55,  1004,  0,  0,  0,  -11,  -26,  -38
3405675, 1710336638, "2024/3/13 13:30:38",  5,  -60,  1000,  0,  0,  0,  -12,  -25,  -37
3405875, 1710336638, "2024/3/13 13:30:38",  0,  -55,  1002,  0,  0,  0,  -10,  -26,  -38
3406075, 1710336639, "2024/3/13 13:30:39",  8,  -54,  1005,  0,  0,  -1,  -11,  -27,  -35
3406275, 1710336639, "2024/3/13 13:30:39",  4,  -60,  1009,  0,  0,  -1,  -10,  -27,  -37
3406475, 1710336639, "2024/3/13 13:30:39",  8,  -62,  1011,  0,  0,  -1,  -11,  -26,  -36
3406675, 1710336639, "2024/3/13 13:30:39",  5,  -56,  1005,  0,  0,  -1,  -11,  -27,  -34
3406875, 1710336639, "2024/3/13 13:30:39",  4,  -63,  1004,  0,  0,  -1,  -10,  -25,  -37
3407075, 1710336640, "2024/3/13 13:30:40",  7,  -51,  1010,  0,  0,  0,  -10,  -27,  -37
3407275, 1710336640, "2024/3/13 13:30:40",  6,  -60,  1003,  0,  0,  -1,  -10,  -26,  -37
3407475, 1710336640, "2024/3/13 13:30:40",  4,  -58,  1002,  0,  0,  -1,  -12,  -28,  -38
3407675, 1710336640, "2024/3/13 13:30:40",  6,  -58,  1006,  0,  0,  0,  -9,  -26,  -36
3407875, 1710336640, "2024/3/13 13:30:40",  4,  -63,  1002,  0,  0,  0,  -10,  -27,  -37
3408075, 1710336641, "2024/3/13 13:30:41",  -1,  -55,  1008,  0,  -1,  0,  -10,  -26,  -36
3408275, 1710336641, "2024/3/13 13:30:41",  3,  -57,  1003,  0,  0,  0,  -8,  -27,  -36
3408475, 1710336641, "2024/3/13 13:30:41",  3,  -58,  1001,  0,  0,  0,  -10,  -25,  -37
3408675, 1710336641, "2024/3/13 13:30:41",  3,  -62,  1002,  0,  0,  0,  -11,  -26,  -37
3408875, 1710336641, "2024/3/13 13:30:41",  4,  -60,  1001,  0,  0,  -1,  -10,  -27,  -36
3409075, 1710336642, "2024/3/13 13:30:42",  1,  -55,  1002,  0,  0,  -1,  -12,  -26,  -36
3409275, 1710336642, "2024/3/13 13:30:42",  9,  -60,  1002,  0,  0,  -1,  -10,  -26,  -36
3409475, 1710336642, "2024/3/13 13:30:42",  4,  -55,  1003,  0,  0,  -1,  -9,  -27,  -36
3409675, 1710336642, "2024/3/13 13:30:42",  3,  -58,  1006,  0,  0,  -1,  -10,  -25,  -37
3409875, 1710336642, "2024/3/13 13:30:42",  6,  -55,  1004,  0,  0,  0,  -11,  -27,  -37
3410075, 1710336643, "2024/3/13 13:30:43",  6,  -59,  999,  0,  -1,  -1,  -10,  -27,  -36
3410275, 1710336643, "2024/3/13 13:30:43",  3,  -59,  1000,  0,  0,  -1,  -9,  -26,  -38
3410475, 1710336643, "2024/3/13 13:30:43",  6,  -57,  1003,  0,  0,  -1,  -10,  -26,  -36
3410675, 1710336643, "2024/3/13 13:30:43",  3,  -60,  1004,  0,  0,  -1,  -11,  -26,  -37
3410875, 1710336643, "2024/3/13 13:30:43",  5,  -56,  1001,  0,  0,  -1,  -11,  -24,  -37
3411075, 1710336644, "2024/3/13 13:30:44",  4,  -57,  1005,  0,  0,  0,  -11,  -27,  -36
3411275, 1710336644, "2024/3/13 13:30:44",  5,  -59,  1004,  0,  0,  -1,  -11,  -27,  -37
3411475, 1710336644, "2024/3/13 13:30:44",  5,  -57,  1003,  0,  -1,  -1,  -11,  -26,  -36
3411675, 1710336644, "2024/3/13 13:30:44",  4,  -58,  1000,  0,  0,  0,  -10,  -26,  -37
3411875, 1710336644, "2024/3/13 13:30:44",  1,  -52,  1003,  0,  0,  -1,  -11,  -26,  -37
3412075, 1710336645, "2024/3/13 13:30:45",  4,  -61,  1005,  0,  0,  0,  -10,  -27,  -36
3412275, 1710336645, "2024/3/13 13:30:45",  3,  -55,  1002,  0,  0,  -1,  -8,  -27,  -34
3412475, 1710336645, "2024/3/13 13:30:45",  0,  -55,  1004,  0,  0,  0,  -10,  -28,  -37
3412675, 1710336645, "2024/3/13 13:30:45",  3,  -56,  1003,  0,  0,  0,  -8,  -27,  -38
3412875, 1710336645, "2024/3/13 13:30:45",  2,  -58,  1007,  0,  -1,  -1,  -11,  -27,  -35
3413075, 1710336646, "2024/3/13 13:30:46",  5,  -54,  1004,  0,  0,  -1,  -9,  -26,  -36
3413275, 1710336646, "2024/3/13 13:30:46",  0,  -63,  1005,  0,  0,  0,  -12,  -27,  -39
3413475, 1710336646, "2024/3/13 13:30:46",  5,  -57,  1002,  0,  0,  -1,  -10,  -25,  -36
3413675, 1710336646, "2024/3/13 13:30:46",  2,  -56,  1004,  0,  0,  0,  -10,  -26,  -37
3413875, 1710336646, "2024/3/13 13:30:46",  8,  -57,  1005,  0,  0,  -1,  -10,  -26,  -38
3414075, 1710336647, "2024/3/13 13:30:47",  2,  -57,  1006,  0,  0,  -1,  -10,  -27,  -37
3414275, 1710336647, "2024/3/13 13:30:47",  4,  -56,  1003,  0,  0,  -1,  -11,  -26,  -36
3414475, 1710336647, "2024/3/13 13:30:47",  5,  -58,  1007,  0,  0,  -1,  -11,  -29,  -37
3414675, 1710336647, "2024/3/13 13:30:47",  6,  -60,  1005,  0,  0,  -1,  -10,  -27,  -35
3414875, 1710336647, "2024/3/13 13:30:47",  3,  -55,  999,  0,  0,  0,  -9,  -26,  -36
3415075, 1710336648, "2024/3/13 13:30:48",  2,  -62,  1003,  0,  -1,  -1,  -11,  -26,  -37
3415275, 1710336648, "2024/3/13 13:30:48",  8,  -64,  1005,  0,  0,  0,  -10,  -27,  -36
3415475, 1710336648, "2024/3/13 13:30:48",  4,  -61,  1001,  0,  0,  -1,  -10,  -26,  -37
3415675, 1710336648, "2024/3/13 13:30:48",  9,  -54,  1003,  0,  0,  -1,  -10,  -28,  -35
3415875, 1710336648, "2024/3/13 13:30:48",  5,  -62,  1002,  0,  0,  -1,  -10,  -26,  -35
3416075, 1710336649, "2024/3/13 13:30:49",  1,  -60,  1003,  0,  0,  0,  -11,  -27,  -36
3416275, 1710336649, "2024/3/13 13:30:49",  2,  -54,  1001,  0,  0,  0,  -10,  -27,  -37
3416475, 1710336649, "2024/3/13 13:30:49",  6,  -54,  1000,  0,  0,  -1,  -10,  -26,  -37
3416675, 1710336649, "2024/3/13 13:30:49",  3,  -58,  1001,  0,  0,  -1,  -11,  -26,  -37
3416875, 1710336649, "2024/3/13 13:30:49",  2,  -59,  1003,  0,  0,  -1,  -10,  -26,  -36
3417075, 1710336650, "2024/3/13 13:30:50",  4,  -57,  1000,  0,  -1,  -1,  -11,  -26,  -36
3417275, 1710336650, "2024/3/13 13:30:50",  1,  -59,  1002,  0,  0,  0,  -10,  -27,  -36
3417475, 1710336650, "2024/3/13 13:30:50",  7,  -49,  1007,  0,  0,  0,  -10,  -26,  -36
3417675, 1710336650, "2024/3/13 13:30:50",  5,  -60,  1004,  0,  0,  -1,  -10,  -25,  -37
3417875, 1710336650, "2024/3/13 13:30:50",  6,  -61,  1005,  0,  0,  -1,  -9,  -27,  -37
3418075, 1710336651, "2024/3/13 13:30:51",  6,  -65,  1002,  0,  0,  0,  -11,  -26,  -37
3418275, 1710336651, "2024/3/13 13:30:51",  8,  -58,  1002,  0,  0,  -1,  -11,  -25,  -38
3418475, 1710336651, "2024/3/13 13:30:51",  7,  -64,  1003,  0,  0,  -1,  -11,  -26,  -36
3418675, 1710336651, "2024/3/13 13:30:51",  6,  -57,  1003,  0,  0,  0,  -11,  -25,  -36
3418875, 1710336651, "2024/3/13 13:30:51",  7,  -57,  1002,  0,  0,  -1,  -10,  -26,  -36
3419075, 1710336652, "2024/3/13 13:30:52",  4,  -61,  1004,  0,  0,  0,  -9,  -25,  -36
3419275, 1710336652, "2024/3/13 13:30:52",  1,  -56,  1003,  0,  -1,  -1,  -11,  -28,  -37
3419475, 1710336652, "2024/3/13 13:30:52",  2,  -57,  1004,  0,  0,  -1,  -11,  -27,  -36
3419675, 1710336652, "2024/3/13 13:30:52",  2,  -61,  1003,  0,  -1,  -1,  -12,  -27,  -38
3419875, 1710336652, "2024/3/13 13:30:52",  4,  -62,  1003,  0,  0,  0,  -10,  -27,  -36
3420075, 1710336653, "2024/3/13 13:30:53",  4,  -56,  1007,  0,  0,  -1,  -12,  -26,  -37
3420275, 1710336653, "2024/3/13 13:30:53",  4,  -63,  1004,  0,  0,  -1,  -10,  -26,  -38
3420475, 1710336653, "2024/3/13 13:30:53",  6,  -61,  1004,  0,  0,  -1,  -11,  -27,  -36
3420675, 1710336653, "2024/3/13 13:30:53",  7,  -52,  1001,  0,  0,  0,  -10,  -26,  -37
3420875, 1710336653, "2024/3/13 13:30:53",  3,  -58,  1007,  0,  -1,  -1,  -8,  -26,  -36
3421075, 1710336654, "2024/3/13 13:30:54",  6,  -58,  1001,  0,  0,  -1,  -12,  -27,  -37
3421275, 1710336654, "2024/3/13 13:30:54",  3,  -62,  1006,  0,  0,  -1,  -10,  -27,  -36
3421475, 1710336654, "2024/3/13 13:30:54",  3,  -57,  996,  0,  0,  0,  -11,  -26,  -38
3421675, 1710336654, "2024/3/13 13:30:54",  3,  -59,  1003,  0,  0,  0,  -10,  -26,  -36
3421875, 1710336654, "2024/3/13 13:30:54",  0,  -53,  1001,  0,  0,  0,  -11,  -28,  -37
3422075, 1710336655, "2024/3/13 13:30:55",  5,  -59,  1003,  0,  0,  0,  -10,  -26,  -36
3422275, 1710336655, "2024/3/13 13:30:55",  3,  -59,  1003,  0,  -1,  -1,  -10,  -27,  -37
3422475, 1710336655, "2024/3/13 13:30:55",  3,  -61,  1005,  0,  0,  -1,  -10,  -27,  -36
3422675, 1710336655, "2024/3/13 13:30:55",  3,  -61,  1003,  0,  0,  -1,  -12,  -27,  -37
3422875, 1710336655, "2024/3/13 13:30:55",  8,  -55,  1001,  0,  0,  0,  -10,  -26,  -36
3423075, 1710336656, "2024/3/13 13:30:56",  1,  -64,  1003,  0,  0,  0,  -10,  -26,  -36
3423275, 1710336656, "2024/3/13 13:30:56",  8,  -55,  1003,  0,  0,  0,  -9,  -26,  -36
3423475, 1710336656, "2024/3/13 13:30:56",  4,  -51,  1002,  0,  0,  0,  -11,  -29,  -36
3423675, 1710336656, "2024/3/13 13:30:56",  1,  -59,  1004,  0,  0,  -1,  -12,  -27,  -36
3423875, 1710336656, "2024/3/13 13:30:56",  2,  -64,  1003,  0,  0,  -1,  -10,  -28,  -37
3424075, 1710336657, "2024/3/13 13:30:57",  2,  -51,  1002,  0,  0,  -1,  -10,  -27,  -36
3424275, 1710336657, "2024/3/13 13:30:57",  4,  -57,  1002,  0,  0,  0,  -9,  -26,  -36
3424475, 1710336657, "2024/3/13 13:30:57",  9,  -55,  1008,  0,  0,  -1,  -11,  -28,  -36
3424675, 1710336657, "2024/3/13 13:30:57",  6,  -56,  1005,  0,  0,  -1,  -11,  -27,  -37
3424875, 1710336657, "2024/3/13 13:30:57",  6,  -58,  1006,  0,  0,  -1,  -11,  -27,  -35
3425075, 1710336658, "2024/3/13 13:30:58",  2,  -56,  1004,  0,  0,  -1,  -11,  -28,  -35
3425275, 1710336658, "2024/3/13 13:30:58",  4,  -57,  1003,  0,  0,  0,  -11,  -26,  -36
3425475, 1710336658, "2024/3/13 13:30:58",  4,  -65,  1000,  0,  0,  -1,  -10,  -28,  -37
3425675, 1710336658, "2024/3/13 13:30:58",  5,  -60,  1004,  0,  0,  -1,  -10,  -27,  -36
3425875, 1710336658, "2024/3/13 13:30:58",  8,  -58,  1015,  0,  0,  -1,  -11,  -26,  -36
3426075, 1710336659, "2024/3/13 13:30:59",  5,  -55,  1006,  0,  0,  -1,  -10,  -27,  -37
3426275, 1710336659, "2024/3/13 13:30:59",  9,  -56,  1011,  0,  0,  -1,  -10,  -27,  -36
3426475, 1710336659, "2024/3/13 13:30:59",  8,  -58,  1006,  0,  0,  -1,  -10,  -27,  -37
3426675, 1710336659, "2024/3/13 13:30:59",  3,  -58,  1002,  0,  -1,  -1,  -10,  -25,  -37
3426875, 1710336659, "2024/3/13 13:30:59",  3,  -58,  1000,  0,  0,  -1,  -11,  -26,  -35
3427075, 1710336660, "2024/3/13 13:31:0",  5,  -61,  998,  0,  0,  0,  -9,  -27,  -37
3427275, 1710336660, "2024/3/13 13:31:0",  6,  -63,  999,  0,  -1,  -1,  -11,  -27,  -37
3427475, 1710336660, "2024/3/13 13:31:0",  6,  -54,  1002,  0,  0,  -1,  -11,  -26,  -36
3427675, 1710336660, "2024/3/13 13:31:0",  3,  -57,  1006,  0,  0,  -1,  -11,  -28,  -36
3427875, 1710336660, "2024/3/13 13:31:0",  8,  -62,  1003,  0,  0,  -1,  -11,  -26,  -35
3428075, 1710336661, "2024/3/13 13:31:1",  6,  -61,  1005,  0,  0,  -1,  -11,  -27,  -37
3428275, 1710336661, "2024/3/13 13:31:1",  7,  -55,  1002,  0,  0,  0,  -11,  -26,  -38
3428475, 1710336661, "2024/3/13 13:31:1",  6,  -55,  1002,  0,  0,  0,  -10,  -25,  -36
3428675, 1710336661, "2024/3/13 13:31:1",  2,  -58,  1003,  0,  0,  -1,  -11,  -25,  -36
3428875, 1710336661, "2024/3/13 13:31:1",  4,  -58,  1001,  0,  -1,  -1,  -11,  -26,  -37
3429075, 1710336662, "2024/3/13 13:31:2",  4,  -58,  1004,  0,  -1,  -1,  -10,  -27,  -37
3429275, 1710336662, "2024/3/13 13:31:2",  4,  -56,  1004,  0,  0,  -1,  -12,  -25,  -38
3429475, 1710336662, "2024/3/13 13:31:2",  9,  -57,  1004,  0,  0,  0,  -11,  -27,  -37
3429675, 1710336662, "2024/3/13 13:31:2",  12,  -57,  1002,  0,  0,  0,  -10,  -28,  -36
3429875, 1710336662, "2024/3/13 13:31:2",  1,  -57,  1002,  0,  0,  0,  -9,  -26,  -36
3430075, 1710336663, "2024/3/13 13:31:3",  2,  -64,  1004,  0,  0,  -1,  -11,  -28,  -36
3430275, 1710336663, "2024/3/13 13:31:3",  5,  -58,  1003,  0,  0,  0,  -9,  -27,  -36
3430475, 1710336663, "2024/3/13 13:31:3",  6,  -55,  1002,  0,  0,  -1,  -11,  -26,  -38
3430675, 1710336663, "2024/3/13 13:31:3",  4,  -57,  1006,  0,  -1,  -1,  -10,  -26,  -36
3430875, 1710336663, "2024/3/13 13:31:3",  4,  -54,  1001,  0,  -1,  -1,  -9,  -26,  -36
3431075, 1710336664, "2024/3/13 13:31:4",  9,  -58,  1004,  0,  0,  -1,  -10,  -25,  -36
3431275, 1710336664, "2024/3/13 13:31:4",  5,  -59,  1004,  0,  0,  0,  -11,  -25,  -36
3431475, 1710336664, "2024/3/13 13:31:4",  4,  -63,  1000,  0,  0,  0,  -11,  -28,  -36
3431675, 1710336664, "2024/3/13 13:31:4",  0,  -59,  1001,  0,  0,  0,  -10,  -28,  -36
3431875, 1710336664, "2024/3/13 13:31:4",  3,  -59,  1005,  0,  0,  0,  -10,  -25,  -39
3432075, 1710336665, "2024/3/13 13:31:5",  1,  -61,  1005,  0,  0,  -1,  -9,  -27,  -36
3432275, 1710336665, "2024/3/13 13:31:5",  2,  -58,  1000,  0,  0,  -1,  -12,  -28,  -37
3432475, 1710336665, "2024/3/13 13:31:5",  3,  -58,  1002,  0,  0,  -1,  -10,  -26,  -37
3432675, 1710336665, "2024/3/13 13:31:5",  3,  -52,  1004,  0,  0,  0,  -12,  -28,  -36
3432875, 1710336665, "2024/3/13 13:31:5",  6,  -61,  1001,  0,  -1,  -1,  -10,  -26,  -37
3433075, 1710336666, "2024/3/13 13:31:6",  9,  -59,  1007,  0,  0,  -1,  -9,  -26,  -37
3433275, 1710336666, "2024/3/13 13:31:6",  5,  -55,  1004,  0,  0,  -1,  -10,  -27,  -36
3433475, 1710336666, "2024/3/13 13:31:6",  0,  -59,  1004,  0,  0,  -1,  -10,  -26,  -37
3433675, 1710336666, "2024/3/13 13:31:6",  4,  -64,  1005,  0,  0,  -1,  -9,  -26,  -37
3433875, 1710336666, "2024/3/13 13:31:6",  4,  -56,  1005,  0,  0,  0,  -10,  -26,  -37
3434075, 1710336667, "2024/3/13 13:31:7",  0,  -60,  1005,  0,  0,  -1,  -11,  -27,  -37
3434275, 1710336667, "2024/3/13 13:31:7",  5,  -57,  1004,  0,  -1,  0,  -11,  -26,  -36
3434475, 1710336667, "2024/3/13 13:31:7",  5,  -56,  1004,  0,  0,  -1,  -12,  -26,  -36
3434675, 1710336667, "2024/3/13 13:31:7",  1,  -59,  1002,  0,  0,  0,  -12,  -27,  -38
3434875, 1710336667, "2024/3/13 13:31:7",  5,  -65,  1003,  0,  0,  0,  -11,  -26,  -37
3435075, 1710336668, "2024/3/13 13:31:8",  4,  -56,  1007,  0,  0,  0,  -10,  -26,  -36
3435275, 1710336668, "2024/3/13 13:31:8",  6,  -58,  1002,  0,  -1,  -1,  -10,  -26,  -39
3435475, 1710336668, "2024/3/13 13:31:8",  7,  -61,  1004,  0,  0,  0,  -9,  -27,  -37
3435675, 1710336668, "2024/3/13 13:31:8",  7,  -58,  1000,  0,  0,  -1,  -10,  -26,  -37
3435875, 1710336668, "2024/3/13 13:31:8",  7,  -54,  1001,  0,  -1,  -1,  -11,  -27,  -36
3436075, 1710336669, "2024/3/13 13:31:9",  5,  -59,  1002,  0,  0,  0,  -12,  -27,  -37
3436275, 1710336669, "2024/3/13 13:31:9",  6,  -60,  1002,  0,  0,  0,  -11,  -27,  -36
3436475, 1710336669, "2024/3/13 13:31:9",  8,  -55,  1003,  0,  0,  -1,  -12,  -27,  -36
3436675, 1710336669, "2024/3/13 13:31:9",  3,  -59,  1006,  0,  0,  0,  -11,  -25,  -36
3436875, 1710336669, "2024/3/13 13:31:9",  6,  -62,  1002,  0,  0,  -1,  -10,  -26,  -36
3437075, 1710336670, "2024/3/13 13:31:10",  8,  -57,  1005,  0,  0,  -1,  -12,  -26,  -36
3437275, 1710336670, "2024/3/13 13:31:10",  5,  -57,  1001,  0,  -1,  -1,  -9,  -27,  -36
3437475, 1710336670, "2024/3/13 13:31:10",  6,  -52,  1002,  0,  0,  -1,  -11,  -26,  -36
3437675, 1710336670, "2024/3/13 13:31:10",  7,  -59,  1002,  0,  0,  0,  -11,  -27,  -36
3437875, 1710336670, "2024/3/13 13:31:10",  6,  -55,  1001,  0,  0,  -1,  -11,  -27,  -36
3438075, 1710336671, "2024/3/13 13:31:11",  7,  -56,  1001,  0,  0,  -1,  -11,  -27,  -37
3438275, 1710336671, "2024/3/13 13:31:11",  6,  -61,  1002,  0,  0,  -1,  -10,  -28,  -37
3438475, 1710336671, "2024/3/13 13:31:11",  7,  -53,  1003,  0,  0,  -1,  -11,  -26,  -36
3438675, 1710336671, "2024/3/13 13:31:11",  4,  -58,  1005,  0,  -1,  -1,  -10,  -27,  -37
3438875, 1710336671, "2024/3/13 13:31:11",  2,  -57,  1005,  0,  0,  -1,  -10,  -26,  -36
3439075, 1710336672, "2024/3/13 13:31:12",  1,  -57,  1003,  0,  0,  -1,  -10,  -26,  -38
3439275, 1710336672, "2024/3/13 13:31:12",  6,  -64,  1006,  0,  0,  0,  -9,  -25,  -36
3439475, 1710336672, "2024/3/13 13:31:12",  5,  -58,  1001,  0,  -1,  -1,  -11,  -26,  -37
3439675, 1710336672, "2024/3/13 13:31:12",  2,  -55,  1006,  0,  0,  -1,  -12,  -28,  -37
3439875, 1710336672, "2024/3/13 13:31:12",  4,  -58,  1005,  0,  0,  -1,  -11,  -26,  -35
3440075, 1710336673, "2024/3/13 13:31:13",  3,  -54,  1003,  0,  0,  -1,  -11,  -27,  -37
3440275, 1710336673, "2024/3/13 13:31:13",  7,  -60,  1001,  0,  0,  -1,  -11,  -27,  -36
3440475, 1710336673, "2024/3/13 13:31:13",  3,  -54,  1003,  0,  0,  -1,  -10,  -27,  -37
3440675, 1710336673, "2024/3/13 13:31:13",  10,  -58,  1003,  0,  0,  -1,  -10,  -28,  -37
3440875, 1710336673, "2024/3/13 13:31:13",  7,  -58,  1004,  0,  0,  0,  -11,  -26,  -37
3441075, 1710336674, "2024/3/13 13:31:14",  4,  -58,  1001,  0,  0,  -1,  -11,  -27,  -37
3441275, 1710336674, "2024/3/13 13:31:14",  5,  -55,  1005,  0,  0,  -1,  -10,  -26,  -35
3441475, 1710336674, "2024/3/13 13:31:14",  1,  -62,  1004,  0,  -1,  -1,  -12,  -27,  -38
3441675, 1710336674, "2024/3/13 13:31:14",  2,  -62,  1002,  0,  0,  0,  -9,  -25,  -36
3441875, 1710336674, "2024/3/13 13:31:14",  5,  -59,  1005,  0,  0,  -1,  -11,  -27,  -36
3442075, 1710336675, "2024/3/13 13:31:15",  0,  -51,  1004,  0,  -1,  0,  -10,  -27,  -36
3442275, 1710336675, "2024/3/13 13:31:15",  6,  -56,  1005,  0,  0,  0,  -11,  -27,  -38
3442475, 1710336675, "2024/3/13 13:31:15",  9,  -60,  1000,  0,  0,  -1,  -10,  -25,  -36
3442675, 1710336675, "2024/3/13 13:31:15",  7,  -67,  1004,  0,  0,  -1,  -12,  -26,  -36
3442875, 1710336675, "2024/3/13 13:31:15",  5,  -61,  1002,  0,  -1,  -1,  -10,  -27,  -36
3443075, 1710336676, "2024/3/13 13:31:16",  3,  -58,  1003,  0,  -1,  -1,  -9,  -27,  -36
3443275, 1710336676, "2024/3/13 13:31:16",  4,  -61,  1006,  0,  0,  -1,  -10,  -25,  -37
3443475, 1710336676, "2024/3/13 13:31:16",  4,  -58,  1003,  0,  0,  -1,  -11,  -25,  -36
3443675, 1710336676, "2024/3/13 13:31:16",  0,  -57,  1004,  0,  -1,  -1,  -10,  -26,  -37
3443875, 1710336676, "2024/3/13 13:31:16",  3,  -58,  1005,  0,  0,  -1,  -10,  -27,  -37
3444075, 1710336677, "2024/3/13 13:31:17",  4,  -59,  1004,  0,  0,  -1,  -11,  -27,  -37
3444275, 1710336677, "2024/3/13 13:31:17",  7,  -60,  1005,  0,  0,  0,  -12,  -27,  -36
3444475, 1710336677, "2024/3/13 13:31:17",  1,  -55,  1001,  0,  0,  0,  -9,  -26,  -37
3444675, 1710336677, "2024/3/13 13:31:17",  4,  -56,  1003,  0,  0,  -1,  -11,  -25,  -35
3444875, 1710336677, "2024/3/13 13:31:17",  2,  -56,  1002,  0,  -1,  0,  -10,  -28,  -37
3445075, 1710336678, "2024/3/13 13:31:18",  9,  -54,  1003,  0,  -1,  -1,  -10,  -26,  -36
3445275, 1710336678, "2024/3/13 13:31:18",  2,  -59,  1005,  0,  0,  0,  -9,  -26,  -36
3445475, 1710336678, "2024/3/13 13:31:18",  6,  -59,  1003,  0,  0,  0,  -8,  -27,  -36
3445675, 1710336678, "2024/3/13 13:31:18",  5,  -56,  1005,  0,  0,  0,  -11,  -27,  -37
3445875, 1710336678, "2024/3/13 13:31:18",  6,  -58,  1000,  0,  0,  -1,  -9,  -27,  -37
3446075, 1710336679, "2024/3/13 13:31:19",  6,  -57,  1003,  0,  0,  0,  -10,  -27,  -35
3446275, 1710336679, "2024/3/13 13:31:19",  4,  -55,  1000,  0,  -1,  -1,  -11,  -26,  -37
3446475, 1710336679, "2024/3/13 13:31:19",  2,  -59,  1001,  0,  0,  -1,  -10,  -26,  -36
3446675, 1710336679, "2024/3/13 13:31:19",  2,  -57,  1004,  0,  0,  -1,  -11,  -27,  -36
3446875, 1710336679, "2024/3/13 13:31:19",  2,  -57,  1003,  0,  0,  0,  -12,  -26,  -36
3447075, 1710336680, "2024/3/13 13:31:20",  7,  -53,  1001,  0,  0,  0,  -12,  -27,  -36
3447275, 1710336680, "2024/3/13 13:31:20",  7,  -56,  1003,  0,  0,  0,  -10,  -27,  -38
3447475, 1710336680, "2024/3/13 13:31:20",  5,  -52,  1006,  0,  -1,  0,  -9,  -27,  -35
3447675, 1710336680, "2024/3/13 13:31:20",  5,  -61,  1004,  0,  -1,  -1,  -11,  -25,  -36
3447875, 1710336680, "2024/3/13 13:31:20",  6,  -59,  1005,  0,  0,  -1,  -10,  -26,  -37
3448075, 1710336681, "2024/3/13 13:31:21",  4,  -57,  1005,  0,  0,  -1,  -11,  -26,  -36
3448275, 1710336681, "2024/3/13 13:31:21",  3,  -59,  1001,  0,  0,  -1,  -10,  -27,  -37
3448475, 1710336681, "2024/3/13 13:31:21",  5,  -56,  1005,  0,  0,  0,  -11,  -27,  -35
3448675, 1710336681, "2024/3/13 13:31:21",  5,  -59,  1005,  0,  0,  0,  -11,  -26,  -37
3448875, 1710336681, "2024/3/13 13:31:21",  5,  -51,  1003,  0,  0,  -1,  -11,  -27,  -36
3449075, 1710336682, "2024/3/13 13:31:22",  5,  -64,  1002,  0,  0,  -1,  -10,  -28,  -36
3449275, 1710336682, "2024/3/13 13:31:22",  3,  -63,  1005,  0,  0,  -1,  -11,  -28,  -37
3449475, 1710336682, "2024/3/13 13:31:22",  -1,  -55,  1003,  0,  0,  0,  -11,  -26,  -36
3449675, 1710336682, "2024/3/13 13:31:22",  3,  -56,  1005,  0,  0,  0,  -11,  -28,  -36
3449875, 1710336682, "2024/3/13 13:31:22",  3,  -59,  1003,  0,  -1,  -1,  -11,  -26,  -38
3450075, 1710336683, "2024/3/13 13:31:23",  2,  -61,  1000,  0,  -1,  -1,  -11,  -27,  -38
3450275, 1710336683, "2024/3/13 13:31:23",  8,  -56,  999,  0,  0,  -1,  -10,  -24,  -37
3450475, 1710336683, "2024/3/13 13:31:23",  4,  -54,  1003,  0,  0,  -1,  -9,  -27,  -36
3450675, 1710336683, "2024/3/13 13:31:23",  2,  -61,  1000,  0,  -1,  -1,  -9,  -29,  -37
3450875, 1710336683, "2024/3/13 13:31:23",  6,  -57,  999,  0,  0,  -1,  -9,  -27,  -36
3451075, 1710336684, "2024/3/13 13:31:24",  3,  -58,  1002,  0,  0,  0,  -10,  -27,  -37
3451275, 1710336684, "2024/3/13 13:31:24",  1,  -56,  1004,  0,  0,  0,  -11,  -26,  -36
3451475, 1710336684, "2024/3/13 13:31:24",  4,  -56,  1003,  0,  0,  -1,  -11,  -27,  -37
3451675, 1710336684, "2024/3/13 13:31:24",  -3,  -54,  1005,  0,  -1,  0,  -10,  -26,  -36
3451875, 1710336684, "2024/3/13 13:31:24",  4,  -53,  1002,  0,  0,  0,  -11,  -26,  -38
3452075, 1710336685, "2024/3/13 13:31:25",  6,  -58,  1002,  0,  0,  0,  -10,  -27,  -37
3452275, 1710336685, "2024/3/13 13:31:25",  2,  -60,  999,  0,  0,  0,  -10,  -27,  -37
3452475, 1710336685, "2024/3/13 13:31:25",  3,  -60,  1003,  0,  0,  0,  -10,  -26,  -37
3452675, 1710336685, "2024/3/13 13:31:25",  4,  -57,  1003,  0,  0,  -1,  -11,  -25,  -37
3452875, 1710336685, "2024/3/13 13:31:25",  8,  -65,  1004,  0,  0,  0,  -10,  -26,  -36
3453075, 1710336686, "2024/3/13 13:31:26",  1,  -55,  1004,  0,  0,  -1,  -10,  -28,  -37
3453275, 1710336686, "2024/3/13 13:31:26",  5,  -48,  1002,  0,  0,  -1,  -11,  -26,  -37
3453475, 1710336686, "2024/3/13 13:31:26",  4,  -54,  1003,  0,  0,  0,  -9,  -26,  -36
3453675, 1710336686, "2024/3/13 13:31:26",  6,  -59,  1002,  0,  0,  -1,  -11,  -26,  -36
3453875, 1710336686, "2024/3/13 13:31:26",  2,  -57,  1002,  0,  0,  -1,  -9,  -27,  -37
3454075, 1710336687, "2024/3/13 13:31:27",  6,  -58,  1003,  0,  -1,  -1,  -10,  -26,  -37
3454275, 1710336687, "2024/3/13 13:31:27",  7,  -54,  1005,  0,  -1,  -1,  -12,  -27,  -37
3454475, 1710336687, "2024/3/13 13:31:27",  1,  -57,  1003,  0,  0,  -1,  -10,  -26,  -36
3454675, 1710336687, "2024/3/13 13:31:27",  3,  -53,  999,  0,  -1,  -1,  -11,  -26,  -37
3454875, 1710336687, "2024/3/13 13:31:27",  9,  -57,  1004,  0,  0,  -1,  -12,  -26,  -37
3455075, 1710336688, "2024/3/13 13:31:28",  4,  -58,  1004,  0,  0,  -1,  -10,  -27,  -36
3455275, 1710336688, "2024/3/13 13:31:28",  5,  -51,  1001,  0,  -1,  0,  -11,  -28,  -36
3455475, 1710336688, "2024/3/13 13:31:28",  1,  -57,  998,  0,  -1,  0,  -10,  -27,  -36
3455675, 1710336688, "2024/3/13 13:31:28",  5,  -58,  1004,  0,  0,  -1,  -10,  -27,  -37
3455875, 1710336688, "2024/3/13 13:31:28",  6,  -55,  1000,  0,  0,  -1,  -10,  -27,  -36
3456075, 1710336689, "2024/3/13 13:31:29",  3,  -62,  1001,  0,  0,  0,  -11,  -27,  -35
3456275, 1710336689, "2024/3/13 13:31:29",  7,  -60,  1004,  0,  0,  -1,  -10,  -26,  -36
3456475, 1710336689, "2024/3/13 13:31:29",  1,  -57,  1003,  0,  -1,  -1,  -11,  -25,  -37
3456675, 1710336689, "2024/3/13 13:31:29",  6,  -64,  1005,  0,  0,  -1,  -8,  -26,  -36
3456875, 1710336689, "2024/3/13 13:31:29",  2,  -55,  1004,  0,  0,  -1,  -9,  -26,  -35
3457075, 1710336690, "2024/3/13 13:31:30",  3,  -61,  1006,  0,  0,  -1,  -9,  -28,  -38
3457275, 1710336690, "2024/3/13 13:31:30",  9,  -54,  1005,  0,  0,  -1,  -11,  -27,  -37
3457475, 1710336690, "2024/3/13 13:31:30",  2,  -59,  1003,  0,  0,  0,  -12,  -27,  -36
3457675, 1710336690, "2024/3/13 13:31:30",  1,  -59,  1001,  0,  0,  -1,  -11,  -26,  -38
3457875, 1710336690, "2024/3/13 13:31:30",  3,  -56,  1005,  0,  0,  -1,  -10,  -26,  -37
3458075, 1710336691, "2024/3/13 13:31:31",  0,  -52,  1000,  0,  0,  0,  -11,  -26,  -38
3458275, 1710336691, "2024/3/13 13:31:31",  4,  -55,  1003,  0,  -1,  -1,  -10,  -26,  -37
3458475, 1710336691, "2024/3/13 13:31:31",  1,  -60,  1005,  0,  0,  0,  -11,  -26,  -36
3458675, 1710336691, "2024/3/13 13:31:31",  2,  -54,  1001,  0,  0,  -1,  -11,  -28,  -35
3458875, 1710336691, "2024/3/13 13:31:31",  9,  -56,  1001,  0,  0,  -1,  -9,  -26,  -36
3459075, 1710336692, "2024/3/13 13:31:32",  4,  -63,  1004,  0,  0,  0,  -13,  -27,  -37
3459275, 1710336692, "2024/3/13 13:31:32",  6,  -59,  1004,  0,  -1,  0,  -10,  -26,  -36
3459475, 1710336692, "2024/3/13 13:31:32",  1,  -56,  1000,  0,  0,  0,  -10,  -27,  -36
3459675, 1710336692, "2024/3/13 13:31:32",  6,  -64,  1003,  0,  0,  0,  -10,  -26,  -36
3459875, 1710336692, "2024/3/13 13:31:32",  2,  -59,  1005,  0,  0,  0,  -12,  -26,  -36
3460075, 1710336693, "2024/3/13 13:31:33",  3,  -57,  1004,  0,  0,  -1,  -9,  -25,  -38
3460275, 1710336693, "2024/3/13 13:31:33",  5,  -58,  1004,  0,  0,  0,  -8,  -29,  -34
3460475, 1710336693, "2024/3/13 13:31:33",  5,  -56,  1006,  0,  0,  0,  -10,  -27,  -36
3460675, 1710336693, "2024/3/13 13:31:33",  8,  -59,  1001,  0,  0,  -1,  -9,  -26,  -36
3460875, 1710336693, "2024/3/13 13:31:33",  7,  -59,  1005,  0,  0,  -1,  -10,  -28,  -36
3461075, 1710336694, "2024/3/13 13:31:34",  0,  -54,  1005,  0,  0,  0,  -11,  -28,  -36
3461275, 1710336694, "2024/3/13 13:31:34",  7,  -62,  1003,  0,  0,  -1,  -10,  -26,  -37
3461475, 1710336694, "2024/3/13 13:31:34",  2,  -60,  1000,  0,  0,  -1,  -11,  -25,  -36
3461675, 1710336694, "2024/3/13 13:31:34",  4,  -58,  1007,  0,  0,  -1,  -11,  -27,  -36
3461875, 1710336694, "2024/3/13 13:31:34",  6,  -64,  1001,  0,  0,  -1,  -11,  -27,  -37
3462075, 1710336695, "2024/3/13 13:31:35",  5,  -59,  1002,  0,  0,  -1,  -11,  -28,  -36
3462275, 1710336695, "2024/3/13 13:31:35",  4,  -59,  1003,  0,  -1,  -1,  -10,  -25,  -37
3462475, 1710336695, "2024/3/13 13:31:35",  2,  -61,  1005,  0,  -1,  -1,  -10,  -25,  -37
3462675, 1710336695, "2024/3/13 13:31:35",  5,  -57,  1003,  0,  0,  0,  -11,  -26,  -36
3462875, 1710336695, "2024/3/13 13:31:35",  0,  -62,  1007,  0,  0,  0,  -12,  -25,  -35
3463075, 1710336696, "2024/3/13 13:31:36",  1,  -58,  1003,  0,  0,  -1,  -9,  -27,  -37
3463275, 1710336696, "2024/3/13 13:31:36",  3,  -52,  1004,  0,  0,  0,  -11,  -27,  -37
3463475, 1710336696, "2024/3/13 13:31:36",  1,  -59,  1004,  0,  -1,  0,  -11,  -27,  -36
3463675, 1710336696, "2024/3/13 13:31:36",  5,  -55,  1004,  0,  0,  0,  -11,  -26,  -36
3463875, 1710336696, "2024/3/13 13:31:36",  0,  -56,  1008,  0,  0,  0,  -9,  -26,  -37
3464075, 1710336697, "2024/3/13 13:31:37",  3,  -55,  1003,  0,  0,  0,  -11,  -27,  -36
3464275, 1710336697, "2024/3/13 13:31:37",  3,  -59,  1003,  0,  0,  0,  -12,  -26,  -36
3464475, 1710336697, "2024/3/13 13:31:37",  4,  -51,  1004,  0,  0,  0,  -12,  -26,  -36
3464675, 1710336697, "2024/3/13 13:31:37",  1,  -57,  1003,  0,  0,  0,  -10,  -26,  -36
3464875, 1710336697, "2024/3/13 13:31:37",  7,  -60,  1003,  0,  0,  -1,  -11,  -26,  -36
3465075, 1710336698, "2024/3/13 13:31:38",  3,  -56,  1003,  0,  0,  -1,  -11,  -27,  -36
3465275, 1710336698, "2024/3/13 13:31:38",  8,  -64,  1002,  0,  -1,  -1,  -9,  -26,  -37
3465475, 1710336698, "2024/3/13 13:31:38",  3,  -56,  1004,  0,  0,  -1,  -10,  -27,  -36
3465675, 1710336698, "2024/3/13 13:31:38",  6,  -58,  1004,  0,  0,  0,  -11,  -28,  -36
3465875, 1710336698, "2024/3/13 13:31:38",  8,  -60,  1002,  0,  0,  0,  -12,  -27,  -36
3466075, 1710336699, "2024/3/13 13:31:39",  5,  -61,  1003,  0,  -1,  -1,  -10,  -27,  -37
3466275, 1710336699, "2024/3/13 13:31:39",  4,  -54,  1003,  0,  0,  -1,  -10,  -27,  -37
3466475, 1710336699, "2024/3/13 13:31:39",  4,  -60,  1001,  0,  0,  -1,  -11,  -27,  -36
3466675, 1710336699, "2024/3/13 13:31:39",  8,  -57,  1003,  0,  0,  -1,  -9,  -26,  -37
3466875, 1710336699, "2024/3/13 13:31:39",  5,  -59,  1002,  0,  0,  -1,  -11,  -25,  -37
3467075, 1710336700, "2024/3/13 13:31:40",  4,  -59,  1005,  0,  0,  -1,  -10,  -27,  -37
3467275, 1710336700, "2024/3/13 13:31:40",  4,  -56,  1002,  0,  -1,  -1,  -11,  -27,  -36
3467475, 1710336700, "2024/3/13 13:31:40",  4,  -59,  1002,  0,  0,  0,  -10,  -25,  -36
3467675, 1710336700, "2024/3/13 13:31:40",  10,  -63,  1006,  0,  0,  0,  -9,  -27,  -36
3467875, 1710336700, "2024/3/13 13:31:40",  4,  -60,  1001,  0,  0,  -1,  -10,  -26,  -35
3468075, 1710336701, "2024/3/13 13:31:41",  7,  -63,  1002,  0,  0,  -1,  -12,  -28,  -37
3468275, 1710336701, "2024/3/13 13:31:41",  5,  -58,  1001,  0,  0,  -1,  -10,  -27,  -36
3468475, 1710336701, "2024/3/13 13:31:41",  2,  -59,  1004,  0,  0,  0,  -10,  -27,  -36
3468675, 1710336701, "2024/3/13 13:31:41",  4,  -55,  1003,  0,  0,  0,  -10,  -28,  -37
3468875, 1710336701, "2024/3/13 13:31:41",  1,  -53,  1005,  0,  0,  -1,  -12,  -25,  -37
3469075, 1710336702, "2024/3/13 13:31:42",  10,  -60,  1002,  0,  0,  -1,  -10,  -25,  -36
3469275, 1710336702, "2024/3/13 13:31:42",  5,  -59,  1004,  0,  0,  -1,  -11,  -27,  -36
3469475, 1710336702, "2024/3/13 13:31:42",  7,  -60,  1008,  0,  0,  0,  -11,  -26,  -38
3469675, 1710336702, "2024/3/13 13:31:42",  13,  -60,  1003,  0,  0,  -1,  -9,  -28,  -35
3469875, 1710336702, "2024/3/13 13:31:42",  4,  -61,  999,  0,  0,  0,  -11,  -26,  -36
3470075, 1710336703, "2024/3/13 13:31:43",  4,  -50,  1002,  0,  0,  0,  -10,  -27,  -35
3470275, 1710336703, "2024/3/13 13:31:43",  3,  -52,  1003,  0,  0,  -1,  -11,  -27,  -36
3470475, 1710336703, "2024/3/13 13:31:43",  8,  -54,  1003,  0,  -1,  -1,  -9,  -28,  -36
3470675, 1710336703, "2024/3/13 13:31:43",  3,  -61,  1004,  0,  0,  -1,  -11,  -28,  -36
3470875, 1710336703, "2024/3/13 13:31:43",  4,  -56,  1001,  0,  0,  0,  -10,  -27,  -37
3471075, 1710336704, "2024/3/13 13:31:44",  5,  -56,  1004,  0,  0,  -1,  -12,  -27,  -37
3471275, 1710336704, "2024/3/13 13:31:44",  4,  -63,  1000,  0,  0,  0,  -9,  -27,  -37
3471475, 1710336704, "2024/3/13 13:31:44",  0,  -54,  1001,  0,  -1,  -1,  -10,  -27,  -37
3471675, 1710336704, "2024/3/13 13:31:44",  6,  -65,  1000,  0,  0,  -1,  -10,  -26,  -38
3471875, 1710336704, "2024/3/13 13:31:44",  6,  -58,  1007,  0,  0,  -1,  -9,  -26,  -36
3472075, 1710336705, "2024/3/13 13:31:45",  5,  -56,  1004,  0,  0,  -1,  -12,  -27,  -36
3472275, 1710336705, "2024/3/13 13:31:45",  5,  -59,  1005,  0,  0,  -1,  -11,  -27,  -37
3472475, 1710336705, "2024/3/13 13:31:45",  7,  -52,  1008,  0,  0,  0,  -9,  -25,  -36
3472675, 1710336705, "2024/3/13 13:31:45",  4,  -58,  1005,  0,  0,  0,  -11,  -26,  -36
3472875, 1710336705, "2024/3/13 13:31:45",  2,  -63,  1002,  0,  0,  -1,  -12,  -28,  -36
3473075, 1710336706, "2024/3/13 13:31:46",  8,  -53,  1001,  0,  0,  -1,  -10,  -25,  -36
3473275, 1710336706, "2024/3/13 13:31:46",  4,  -56,  1005,  0,  0,  0,  -11,  -26,  -36
3473475, 1710336706, "2024/3/13 13:31:46",  1,  -53,  1004,  0,  0,  -1,  -10,  -25,  -36
3473675, 1710336706, "2024/3/13 13:31:46",  3,  -59,  1002,  0,  0,  0,  -10,  -27,  -36
3473875, 1710336706, "2024/3/13 13:31:46",  6,  -56,  1003,  0,  -1,  -1,  -11,  -27,  -37
3474075, 1710336707, "2024/3/13 13:31:47",  7,  -56,  1003,  0,  0,  -1,  -10,  -27,  -38
3474275, 1710336707, "2024/3/13 13:31:47",  4,  -64,  1005,  0,  0,  -1,  -11,  -27,  -37
3474475, 1710336707, "2024/3/13 13:31:47",  5,  -63,  1002,  0,  0,  -1,  -12,  -25,  -36
3474675, 1710336707, "2024/3/13 13:31:47",  -1,  -57,  1003,  0,  0,  -1,  -10,  -28,  -38
3474875, 1710336707, "2024/3/13 13:31:47",  5,  -60,  1004,  0,  0,  -1,  -11,  -26,  -36
3475075, 1710336708, "2024/3/13 13:31:48",  14,  -63,  1001,  0,  0,  0,  -10,  -27,  -38
3475275, 1710336708, "2024/3/13 13:31:48",  7,  -52,  1014,  0,  0,  -1,  -9,  -27,  -36
3475475, 1710336708, "2024/3/13 13:31:48",  0,  -50,  1003,  0,  -1,  0,  -11,  -27,  -36
3475675, 1710336708, "2024/3/13 13:31:48",  -1,  -50,  993,  0,  0,  -1,  -10,  -26,  -34
3475875, 1710336708, "2024/3/13 13:31:48",  2,  -56,  1005,  0,  -1,  -1,  -9,  -27,  -36
3476075, 1710336709, "2024/3/13 13:31:49",  -15,  -62,  992,  0,  -1,  0,  -11,  -27,  -36
3476275, 1710336709, "2024/3/13 13:31:49",  5,  -59,  1006,  0,  0,  -1,  -10,  -26,  -37
3476475, 1710336709, "2024/3/13 13:31:49",  6,  -65,  1005,  0,  -1,  0,  -12,  -27,  -38
3476675, 1710336709, "2024/3/13 13:31:49",  5,  -66,  1004,  0,  -1,  -1,  -10,  -26,  -38
3476875, 1710336709, "2024/3/13 13:31:49",  5,  -57,  1006,  0,  -1,  -1,  -12,  -27,  -36
3477075, 1710336710, "2024/3/13 13:31:50",  10,  -50,  1007,  0,  -1,  -1,  -11,  -28,  -36
3477275, 1710336710, "2024/3/13 13:31:50",  4,  -62,  1002,  0,  0,  -1,  -11,  -25,  -36
3477475, 1710336710, "2024/3/13 13:31:50",  3,  -61,  1001,  0,  0,  0,  -10,  -27,  -37
3477675, 1710336710, "2024/3/13 13:31:50",  8,  -50,  1004,  0,  0,  0,  -11,  -28,  -36
3477875, 1710336710, "2024/3/13 13:31:50",  1,  -51,  1000,  0,  0,  0,  -10,  -27,  -36
3478075, 1710336711, "2024/3/13 13:31:51",  5,  -60,  1009,  0,  0,  0,  -10,  -27,  -38
3478275, 1710336711, "2024/3/13 13:31:51",  9,  -61,  1002,  0,  0,  -1,  -11,  -27,  -36
3478475, 1710336711, "2024/3/13 13:31:51",  -3,  -60,  1002,  0,  0,  -1,  -8,  -27,  -35
3478675, 1710336711, "2024/3/13 13:31:51",  15,  -64,  1000,  0,  0,  -1,  -9,  -27,  -34
3478875, 1710336711, "2024/3/13 13:31:51",  10,  -56,  1008,  0,  0,  -1,  -11,  -27,  -35
3479075, 1710336712, "2024/3/13 13:31:52",  1,  -58,  1002,  0,  0,  0,  -11,  -24,  -36
3479275, 1710336712, "2024/3/13 13:31:52",  9,  -58,  1005,  0,  -1,  0,  -11,  -26,  -37
3479475, 1710336712, "2024/3/13 13:31:52",  10,  -62,  1004,  0,  0,  -1,  -10,  -28,  -36
3479675, 1710336712, "2024/3/13 13:31:52",  1,  -57,  1000,  0,  0,  -1,  -11,  -26,  -37
3479875, 1710336712, "2024/3/13 13:31:52",  1,  -58,  1001,  0,  0,  0,  -11,  -27,  -37
3480075, 1710336713, "2024/3/13 13:31:53",  6,  -61,  1005,  0,  0,  0,  -11,  -27,  -36
3480275, 1710336713, "2024/3/13 13:31:53",  6,  -58,  1006,  0,  0,  -1,  -11,  -26,  -36
3480475, 1710336713, "2024/3/13 13:31:53",  2,  -57,  1006,  0,  -1,  0,  -10,  -25,  -36
3480675, 1710336713, "2024/3/13 13:31:53",  2,  -59,  1005,  0,  -1,  -1,  -9,  -27,  -37
3480875, 1710336713, "2024/3/13 13:31:53",  5,  -60,  1003,  0,  0,  0,  -10,  -28,  -37
3481075, 1710336714, "2024/3/13 13:31:54",  3,  -63,  1000,  0,  0,  0,  -11,  -27,  -36
3481275, 1710336714, "2024/3/13 13:31:54",  12,  -52,  1002,  0,  -1,  -1,  -10,  -25,  -37
3481475, 1710336714, "2024/3/13 13:31:54",  -1,  -61,  997,  0,  0,  -1,  -10,  -25,  -37
3481675, 1710336714, "2024/3/13 13:31:54",  5,  -58,  1003,  0,  0,  0,  -10,  -26,  -38
3481875, 1710336714, "2024/3/13 13:31:54",  10,  -62,  1006,  0,  0,  0,  -10,  -26,  -37
3482075, 1710336715, "2024/3/13 13:31:55",  12,  -62,  1003,  0,  0,  -1,  -10,  -28,  -37
3482275, 1710336715, "2024/3/13 13:31:55",  14,  -53,  1000,  0,  0,  -1,  -10,  -28,  -36
3482475, 1710336715, "2024/3/13 13:31:55",  8,  -56,  1000,  0,  -1,  -1,  -11,  -27,  -37
3482675, 1710336715, "2024/3/13 13:31:55",  10,  -39,  1003,  0,  0,  0,  -12,  -27,  -36
3482875, 1710336715, "2024/3/13 13:31:55",  15,  -58,  1006,  0,  0,  -1,  -10,  -27,  -36
3483075, 1710336716, "2024/3/13 13:31:56",  8,  -58,  1001,  0,  0,  0,  -11,  -27,  -37
3483275, 1710336716, "2024/3/13 13:31:56",  1,  -60,  1001,  0,  0,  -1,  -11,  -26,  -36
3483475, 1710336716, "2024/3/13 13:31:56",  -3,  -55,  1013,  0,  0,  -1,  -10,  -26,  -36
3483675, 1710336716, "2024/3/13 13:31:56",  0,  -63,  1000,  0,  0,  0,  -11,  -27,  -36
3483875, 1710336716, "2024/3/13 13:31:56",  11,  -54,  999,  0,  0,  -1,  -11,  -28,  -36
3484075, 1710336717, "2024/3/13 13:31:57",  6,  -54,  993,  0,  -1,  -1,  -12,  -26,  -37
3484275, 1710336717, "2024/3/13 13:31:57",  2,  -49,  996,  1,  0,  -1,  -11,  -26,  -37
3484475, 1710336717, "2024/3/13 13:31:57",  13,  -55,  1004,  0,  -1,  0,  -10,  -27,  -36
3484675, 1710336717, "2024/3/13 13:31:57",  6,  -61,  1000,  0,  -1,  0,  -11,  -27,  -39
3484875, 1710336717, "2024/3/13 13:31:57",  14,  -74,  1006,  0,  0,  0,  -9,  -27,  -36
3485075, 1710336718, "2024/3/13 13:31:58",  11,  -63,  1000,  0,  0,  -1,  -9,  -26,  -37
3485275, 1710336718, "2024/3/13 13:31:58",  4,  -53,  1004,  0,  0,  -1,  -11,  -26,  -37
3485475, 1710336718, "2024/3/13 13:31:58",  7,  -59,  1003,  0,  0,  0,  -11,  -26,  -36
3485675, 1710336718, "2024/3/13 13:31:58",  9,  -58,  1001,  0,  0,  0,  -11,  -27,  -36
3485875, 1710336718, "2024/3/13 13:31:58",  9,  -63,  1001,  0,  -1,  -1,  -11,  -26,  -38
3486075, 1710336719, "2024/3/13 13:31:59",  11,  -48,  1005,  0,  0,  -1,  -12,  -26,  -37
3486275, 1710336719, "2024/3/13 13:31:59",  10,  -49,  1006,  1,  0,  -1,  -11,  -25,  -37
3486475, 1710336719, "2024/3/13 13:31:59",  10,  -55,  1003,  0,  0,  0,  -12,  -27,  -37
3486675, 1710336719, "2024/3/13 13:31:59",  5,  -68,  1009,  0,  0,  -1,  -10,  -26,  -36
3486875, 1710336719, "2024/3/13 13:31:59",  -5,  -48,  1005,  0,  -1,  -1,  -11,  -25,  -35
3487075, 1710336720, "2024/3/13 13:32:0",  -1,  -65,  995,  0,  0,  -1,  -12,  -27,  -38
3487275, 1710336720, "2024/3/13 13:32:0",  0,  -64,  1005,  0,  0,  -1,  -10,  -27,  -36
3487475, 1710336720, "2024/3/13 13:32:0",  -4,  -64,  999,  0,  0,  0,  -12,  -25,  -37
3487675, 1710336720, "2024/3/13 13:32:0",  -6,  -63,  1001,  0,  -1,  -1,  -11,  -27,  -36
3487875, 1710336720, "2024/3/13 13:32:0",  1,  -62,  1005,  0,  0,  0,  -9,  -27,  -37
3488075, 1710336721, "2024/3/13 13:32:1",  2,  -57,  1004,  0,  0,  0,  -12,  -26,  -37
3488275, 1710336721, "2024/3/13 13:32:1",  -1,  -52,  1002,  0,  0,  0,  -10,  -26,  -36
3488475, 1710336721, "2024/3/13 13:32:1",  2,  -60,  1005,  0,  0,  -1,  -11,  -27,  -37
3488675, 1710336721, "2024/3/13 13:32:1",  4,  -64,  1005,  0,  0,  -1,  -12,  -27,  -37
3488875, 1710336721, "2024/3/13 13:32:1",  -1,  -64,  1002,  0,  0,  -1,  -10,  -27,  -37
3489075, 1710336722, "2024/3/13 13:32:2",  9,  -62,  1002,  0,  0,  -1,  -11,  -26,  -36
3489275, 1710336722, "2024/3/13 13:32:2",  7,  -63,  1003,  0,  0,  -1,  -11,  -26,  -35
3489475, 1710336722, "2024/3/13 13:32:2",  9,  -64,  1003,  0,  0,  0,  -10,  -26,  -38
3489675, 1710336722, "2024/3/13 13:32:2",  8,  -59,  1006,  0,  0,  -1,  -9,  -24,  -37
3489875, 1710336722, "2024/3/13 13:32:2",  4,  -48,  1011,  0,  0,  0,  -10,  -27,  -37
3490075, 1710336723, "2024/3/13 13:32:3",  2,  -58,  1004,  0,  0,  -1,  -9,  -26,  -37
3490275, 1710336723, "2024/3/13 13:32:3",  10,  -69,  1000,  0,  0,  -1,  -9,  -27,  -37
3490475, 1710336723, "2024/3/13 13:32:3",  8,  -59,  1000,  0,  0,  -1,  -11,  -27,  -37
3490675, 1710336723, "2024/3/13 13:32:3",  5,  -56,  1004,  0,  0,  -1,  -11,  -26,  -36
3490875, 1710336723, "2024/3/13 13:32:3",  8,  -62,  1006,  0,  0,  0,  -11,  -27,  -37
3491075, 1710336724, "2024/3/13 13:32:4",  9,  -47,  1004,  0,  0,  0,  -12,  -26,  -36
3491275, 1710336724, "2024/3/13 13:32:4",  3,  -54,  1000,  0,  0,  0,  -11,  -28,  -38
3491475, 1710336724, "2024/3/13 13:32:4",  5,  -63,  1007,  0,  0,  0,  -12,  -26,  -36
3491675, 1710336724, "2024/3/13 13:32:4",  9,  -56,  1005,  0,  0,  -1,  -11,  -25,  -37
3491875, 1710336724, "2024/3/13 13:32:4",  2,  -59,  1003,  0,  0,  -1,  -10,  -26,  -37
3492075, 1710336725, "2024/3/13 13:32:5",  6,  -59,  1000,  0,  0,  0,  -11,  -26,  -35
3492275, 1710336725, "2024/3/13 13:32:5",  4,  -61,  1004,  0,  0,  -1,  -11,  -27,  -37
3492475, 1710336725, "2024/3/13 13:32:5",  10,  -54,  1002,  0,  0,  0,  -11,  -27,  -37
3492675, 1710336725, "2024/3/13 13:32:5",  3,  -54,  1003,  0,  -1,  -1,  -10,  -26,  -36
3492875, 1710336725, "2024/3/13 13:32:5",  3,  -64,  991,  0,  -1,  -1,  -11,  -26,  -37
3493075, 1710336726, "2024/3/13 13:32:6",  11,  -62,  1003,  0,  0,  -1,  -9,  -25,  -37
3493275, 1710336726, "2024/3/13 13:32:6",  1,  -49,  1010,  0,  0,  0,  -10,  -26,  -37
3493475, 1710336726, "2024/3/13 13:32:6",  11,  -47,  1005,  0,  0,  0,  -11,  -26,  -36
3493675, 1710336726, "2024/3/13 13:32:6",  17,  -62,  1007,  0,  0,  0,  -9,  -25,  -37
3493875, 1710336726, "2024/3/13 13:32:6",  9,  -56,  1001,  0,  0,  0,  -10,  -28,  -37
3494075, 1710336727, "2024/3/13 13:32:7",  5,  -56,  1002,  0,  0,  -1,  -12,  -28,  -37
3494275, 1710336727, "2024/3/13 13:32:7",  11,  -52,  1001,  0,  0,  -1,  -9,  -26,  -38
3494475, 1710336727, "2024/3/13 13:32:7",  0,  -56,  1006,  0,  0,  -1,  -12,  -25,  -37
3494675, 1710336727, "2024/3/13 13:32:7",  10,  -67,  1004,  0,  0,  -1,  -12,  -26,  -37
3494875, 1710336727, "2024/3/13 13:32:7",  17,  -69,  1005,  0,  0,  -1,  -10,  -27,  -36
3495075, 1710336728, "2024/3/13 13:32:8",  3,  -58,  1002,  0,  0,  -1,  -11,  -28,  -36
3495275, 1710336728, "2024/3/13 13:32:8",  -2,  -64,  1003,  0,  -1,  0,  -11,  -26,  -36
3495475, 1710336728, "2024/3/13 13:32:8",  8,  -64,  999,  0,  0,  -1,  -11,  -27,  -38
3495675, 1710336728, "2024/3/13 13:32:8",  4,  -53,  1003,  0,  0,  -1,  -11,  -26,  -36
3495875, 1710336728, "2024/3/13 13:32:8",  4,  -49,  1003,  0,  0,  0,  -11,  -27,  -36
3496075, 1710336729, "2024/3/13 13:32:9",  6,  -64,  1000,  0,  0,  0,  -11,  -26,  -36
3496275, 1710336729, "2024/3/13 13:32:9",  9,  -62,  1002,  0,  0,  0,  -10,  -27,  -37
3496475, 1710336729, "2024/3/13 13:32:9",  5,  -58,  998,  0,  0,  -1,  -9,  -26,  -36
3496675, 1710336729, "2024/3/13 13:32:9",  6,  -60,  1005,  0,  -1,  -1,  -10,  -27,  -37
3496875, 1710336729, "2024/3/13 13:32:9",  -4,  -54,  1005,  0,  0,  0,  -11,  -28,  -36
3497075, 1710336730, "2024/3/13 13:32:10",  0,  -51,  1002,  0,  -1,  -1,  -10,  -28,  -36
3497275, 1710336730, "2024/3/13 13:32:10",  7,  -48,  1003,  0,  0,  -1,  -13,  -26,  -38
3497475, 1710336730, "2024/3/13 13:32:10",  7,  -58,  1006,  0,  0,  -1,  -10,  -27,  -37
3497675, 1710336730, "2024/3/13 13:32:10",  8,  -69,  997,  0,  0,  0,  -10,  -28,  -37
3497875, 1710336730, "2024/3/13 13:32:10",  6,  -56,  1004,  0,  0,  0,  -11,  -27,  -38
3498075, 1710336731, "2024/3/13 13:32:11",  7,  -58,  1003,  0,  0,  0,  -9,  -27,  -37
3498275, 1710336731, "2024/3/13 13:32:11",  -1,  -64,  991,  0,  -1,  -1,  -11,  -26,  -36
3498475, 1710336731, "2024/3/13 13:32:11",  9,  -57,  1001,  0,  -1,  -1,  -10,  -26,  -36
3498675, 1710336731, "2024/3/13 13:32:11",  4,  -59,  1003,  1,  0,  -1,  -10,  -27,  -37
3498875, 1710336731, "2024/3/13 13:32:11",  2,  -61,  1000,  0,  0,  0,  -11,  -26,  -37
3499075, 1710336732, "2024/3/13 13:32:12",  -3,  -53,  1001,  0,  -1,  -1,  -11,  -27,  -36
3499275, 1710336732, "2024/3/13 13:32:12",  2,  -62,  1003,  0,  0,  -1,  -11,  -27,  -37
3499475, 1710336732, "2024/3/13 13:32:12",  7,  -69,  1001,  0,  -1,  -1,  -11,  -27,  -37
3499675, 1710336732, "2024/3/13 13:32:12",  8,  -43,  1000,  0,  0,  0,  -12,  -30,  -38
3499875, 1710336732, "2024/3/13 13:32:12",  -5,  -52,  997,  0,  0,  -1,  -10,  -25,  -37
3500075, 1710336733, "2024/3/13 13:32:13",  5,  -73,  1006,  0,  0,  -1,  -11,  -26,  -35
3500275, 1710336733, "2024/3/13 13:32:13",  10,  -68,  1005,  0,  0,  -1,  -11,  -28,  -37
3500475, 1710336733, "2024/3/13 13:32:13",  5,  -59,  1001,  0,  0,  0,  -10,  -26,  -35
3500675, 1710336733, "2024/3/13 13:32:13",  5,  -58,  1003,  0,  0,  -1,  -10,  -27,  -36
3500875, 1710336733, "2024/3/13 13:32:13",  5,  -59,  1002,  0,  0,  -1,  -11,  -27,  -37
3501075, 1710336734, "2024/3/13 13:32:14",  6,  -61,  1002,  0,  0,  -1,  -10,  -26,  -37
3501275, 1710336734, "2024/3/13 13:32:14",  5,  -53,  1002,  0,  0,  -1,  -12,  -28,  -38
3501475, 1710336734, "2024/3/13 13:32:14",  6,  -59,  1004,  0,  0,  -1,  -10,  -26,  -36
3501675, 1710336734, "2024/3/13 13:32:14",  6,  -67,  1002,  0,  0,  -1,  -10,  -27,  -37
3501875, 1710336734, "2024/3/13 13:32:14",  -3,  -61,  1003,  0,  0,  0,  -10,  -27,  -35
3502075, 1710336735, "2024/3/13 13:32:15",  3,  -61,  1005,  0,  0,  -1,  -12,  -27,  -36
3502275, 1710336735, "2024/3/13 13:32:15",  7,  -62,  1006,  0,  0,  -1,  -11,  -26,  -37
3502475, 1710336735, "2024/3/13 13:32:15",  4,  -61,  1003,  0,  0,  0,  -11,  -26,  -37
3502675, 1710336735, "2024/3/13 13:32:15",  7,  -60,  999,  0,  0,  -1,  -9,  -26,  -38
3502875, 1710336735, "2024/3/13 13:32:15",  6,  -58,  1001,  0,  0,  0,  -10,  -28,  -36
3503075, 1710336736, "2024/3/13 13:32:16",  7,  -51,  1001,  0,  0,  0,  -11,  -27,  -37
3503275, 1710336736, "2024/3/13 13:32:16",  8,  -59,  999,  0,  0,  -1,  -10,  -25,  -35
3503475, 1710336736, "2024/3/13 13:32:16",  9,  -58,  1001,  0,  0,  -1,  -11,  -27,  -35
3503675, 1710336736, "2024/3/13 13:32:16",  5,  -52,  998,  0,  0,  -1,  -10,  -27,  -37
3503875, 1710336736, "2024/3/13 13:32:16",  7,  -60,  1005,  0,  0,  -1,  -10,  -27,  -36
3504075, 1710336737, "2024/3/13 13:32:17",  14,  -64,  1003,  0,  0,  -1,  -10,  -25,  -37
3504275, 1710336737, "2024/3/13 13:32:17",  14,  -64,  1005,  0,  0,  -1,  -9,  -27,  -38
3504475, 1710336737, "2024/3/13 13:32:17",  9,  -49,  1004,  0,  0,  0,  -10,  -28,  -36
3504675, 1710336737, "2024/3/13 13:32:17",  6,  -58,  1005,  0,  0,  0,  -11,  -27,  -37
3504875, 1710336737, "2024/3/13 13:32:17",  8,  -52,  1002,  0,  0,  -1,  -11,  -27,  -37
3505075, 1710336738, "2024/3/13 13:32:18",  7,  -59,  1002,  0,  -1,  -1,  -10,  -28,  -36
3505275, 1710336738, "2024/3/13 13:32:18",  5,  -58,  1007,  0,  0,  -1,  -10,  -27,  -37
3505475, 1710336738, "2024/3/13 13:32:18",  5,  -61,  1016,  0,  0,  -1,  -9,  -28,  -37
3505675, 1710336738, "2024/3/13 13:32:18",  3,  -50,  1003,  0,  0,  0,  -10,  -27,  -37
3505875, 1710336738, "2024/3/13 13:32:18",  1,  -51,  1000,  0,  0,  -1,  -10,  -28,  -36
3506075, 1710336739, "2024/3/13 13:32:19",  5,  -56,  1001,  0,  -1,  -1,  -11,  -26,  -36
3506275, 1710336739, "2024/3/13 13:32:19",  11,  -59,  1007,  1,  -1,  -1,  -10,  -27,  -37
3506475, 1710336739, "2024/3/13 13:32:19",  10,  -57,  1005,  0,  0,  0,  -10,  -23,  -37
3506675, 1710336739, "2024/3/13 13:32:19",  3,  -62,  1005,  0,  0,  0,  -11,  -27,  -38
3506875, 1710336739, "2024/3/13 13:32:19",  9,  -58,  1001,  0,  0,  0,  -12,  -26,  -37
3507075, 1710336740, "2024/3/13 13:32:20",  3,  -71,  960,  0,  -1,  -1,  -10,  -28,  -36
3507275, 1710336740, "2024/3/13 13:32:20",  8,  -46,  999,  0,  0,  0,  -11,  -27,  -37
3507475, 1710336740, "2024/3/13 13:32:20",  9,  -50,  1003,  1,  0,  0,  -10,  -27,  -37
3507675, 1710336740, "2024/3/13 13:32:20",  7,  -51,  1003,  0,  0,  -1,  -10,  -27,  -37
3507875, 1710336740, "2024/3/13 13:32:20",  6,  -61,  1000,  0,  0,  -1,  -10,  -26,  -37
3508075, 1710336741, "2024/3/13 13:32:21",  3,  -55,  1006,  0,  0,  -1,  -11,  -28,  -37
3508275, 1710336741, "2024/3/13 13:32:21",  9,  -61,  1004,  0,  0,  0,  -12,  -26,  -36
3508475, 1710336741, "2024/3/13 13:32:21",  6,  -63,  1003,  0,  0,  0,  -9,  -26,  -38
