millis,stamp,datetime,accX,accY,accZ,gyroX,gyroY,gyroZ,compX,compY,compZ
2039133, 1710335271, "2024/3/13 13:7:51",  6,  -64,  1004,  0,  -1,  0,  -10,  -26,  -38
2039333, 1710335271, "2024/3/13 13:7:51",  7,  -59,  1007,  0,  0,  -1,  -9,  -27,  -40
2039533, 1710335271, "2024/3/13 13:7:51",  3,  -61,  1004,  0,  0,  -1,  -9,  -27,  -40
2039733, 1710335271, "2024/3/13 13:7:51",  2,  -53,  1004,  0,  0,  0,  -9,  -24,  -41
2039933, 1710335272, "2024/3/13 13:7:52",  0,  -58,  1008,  0,  0,  -1,  -12,  -24,  -40
2040133, 1710335272, "2024/3/13 13:7:52",  2,  -59,  1001,  0,  0,  0,  -10,  -27,  -40
2040333, 1710335272, "2024/3/13 13:7:52",  7,  -59,  1001,  0,  0,  0,  -12,  -27,  -39
2040534, 1710335272, "2024/3/13 13:7:52",  3,  -54,  1002,  0,  -1,  -1,  -9,  -27,  -40
2040734, 1710335272, "2024/3/13 13:7:52",  5,  -59,  1002,  0,  0,  0,  -9,  -26,  -38
2040934, 1710335273, "2024/3/13 13:7:53",  6,  -58,  1002,  0,  0,  -1,  -9,  -26,  -37
2041134, 1710335273, "2024/3/13 13:7:53",  7,  -61,  1004,  0,  0,  -1,  -8,  -26,  -40
2041334, 1710335273, "2024/3/13 13:7:53",  8,  -53,  1006,  0,  0,  0,  -11,  -25,  -39
2041534, 1710335273, "2024/3/13 13:7:53",  3,  -55,  1005,  0,  0,  0,  -9,  -26,  -39
2041734, 1710335273, "2024/3/13 13:7:53",  4,  -60,  1002,  0,  0,  -1,  -10,  -25,  -38
2041934, 1710335274, "2024/3/13 13:7:54",  7,  -60,  1004,  0,  0,  0,  -10,  -26,  -40
2042134, 1710335274, "2024/3/13 13:7:54",  8,  -58,  999,  0,  0,  -1,  -9,  -24,  -38
2042334, 1710335274, "2024/3/13 13:7:54",  4,  -55,  1003,  0,  0,  0,  -10,  -26,  -39
2042534, 1710335274, "2024/3/13 13:7:54",  5,  -55,  1001,  0,  0,  0,  -9,  -26,  -39
2042734, 1710335274, "2024/3/13 13:7:54",  8,  -56,  1005,  0,  0,  -1,  -10,  -25,  -39
2042934, 1710335275, "2024/3/13 13:7:55",  4,  -55,  1003,  0,  0,  0,  -9,  -26,  -38
2043134, 1710335275, "2024/3/13 13:7:55",  1,  -58,  1006,  0,  0,  -1,  -11,  -26,  -40
2043334, 1710335275, "2024/3/13 13:7:55",  5,  -54,  1007,  0,  0,  -1,  -9,  -27,  -39
2043534, 1710335275, "2024/3/13 13:7:55",  2,  -60,  1001,  0,  0,  -1,  -11,  -26,  -39
2043734, 1710335275, "2024/3/13 13:7:55",  8,  -63,  1003,  0,  0,  0,  -10,  -26,  -38
2043934, 1710335276, "2024/3/13 13:7:56",  5,  -57,  1006,  0,  0,  -1,  -10,  -25,  -40
2044134, 1710335276, "2024/3/13 13:7:56",  2,  -59,  1000,  0,  0,  -1,  -10,  -26,  -39
2044334, 1710335276, "2024/3/13 13:7:56",  8,  -62,  1000,  0,  0,  -1,  -9,  -27,  -39
2044534, 1710335276, "2024/3/13 13:7:56",  7,  -64,  1002,  0,  0,  -1,  -10,  -26,  -39
2044734, 1710335276, "2024/3/13 13:7:56",  7,  -59,  1003,  0,  -1,  0,  -11,  -26,  -39
2044934, 1710335277, "2024/3/13 13:7:57",  4,  -60,  1004,  0,  0,  -1,  -11,  -27,  -39
2045134, 1710335277, "2024/3/13 13:7:57",  2,  -59,  1001,  0,  0,  0,  -11,  -27,  -39
2045334, 1710335277, "2024/3/13 13:7:57",  5,  -62,  1006,  0,  0,  -1,  -10,  -27,  -39
2045534, 1710335277, "2024/3/13 13:7:57",  4,  -61,  1005,  0,  0,  0,  -10,  -27,  -38
2045734, 1710335277, "2024/3/13 13:7:57",  4,  -61,  1005,  0,  0,  -1,  -12,  -25,  -39
2045934, 1710335278, "2024/3/13 13:7:58",  7,  -53,  1003,  0,  0,  -1,  -10,  -26,  -39
2046134, 1710335278, "2024/3/13 13:7:58",  5,  -56,  1004,  0,  0,  -1,  -11,  -27,  -38
2046334, 1710335278, "2024/3/13 13:7:58",  -1,  -58,  1003,  0,  0,  -1,  -10,  -26,  -39
2046534, 1710335278, "2024/3/13 13:7:58",  2,  -57,  1003,  0,  0,  -1,  -10,  -27,  -38
2046734, 1710335278, "2024/3/13 13:7:58",  5,  -60,  1006,  0,  0,  0,  -9,  -26,  -38
2046934, 1710335279, "2024/3/13 13:7:59",  3,  -62,  1005,  0,  0,  -1,  -10,  -25,  -39
2047134, 1710335279, "2024/3/13 13:7:59",  5,  -60,  1005,  0,  0,  0,  -10,  -25,  -39
2047334, 1710335279, "2024/3/13 13:7:59",  4,  -55,  1005,  0,  0,  -1,  -9,  -26,  -40
2047534, 1710335279, "2024/3/13 13:7:59",  5,  -55,  1005,  0,  0,  -1,  -9,  -27,  -40
2047734, 1710335279, "2024/3/13 13:7:59",  3,  -58,  1003,  0,  -1,  -1,  -9,  -26,  -38
2047934, 1710335280, "2024/3/13 13:8:0",  0,  -57,  1006,  0,  0,  -1,  -9,  -25,  -38
2048134, 1710335280, "2024/3/13 13:8:0",  6,  -59,  1001,  0,  0,  -1,  -10,  -26,  -39
2048334, 1710335280, "2024/3/13 13:8:0",  8,  -62,  1002,  0,  0,  0,  -11,  -26,  -39
2048534, 1710335280, "2024/3/13 13:8:0",  -1,  -60,  1005,  0,  0,  -1,  -9,  -26,  -39
2048734, 1710335280, "2024/3/13 13:8:0",  7,  -57,  1007,  0,  0,  -1,  -9,  -26,  -40
2048934, 1710335281, "2024/3/13 13:8:1",  14,  -55,  1000,  0,  0,  -1,  -11,  -27,  -39
2049134, 1710335281, "2024/3/13 13:8:1",  6,  -53,  1002,  0,  0,  -1,  -9,  -26,  -38
2049334, 1710335281, "2024/3/13 13:8:1",  9,  -61,  1004,  0,  0,  -1,  -11,  -26,  -40
2049534, 1710335281, "2024/3/13 13:8:1",  8,  -58,  1003,  0,  -1,  -1,  -9,  -26,  -39
2049734, 1710335281, "2024/3/13 13:8:1",  7,  -58,  1000,  0,  0,  -1,  -9,  -25,  -39
2049934, 1710335282, "2024/3/13 13:8:2",  7,  -60,  1003,  0,  0,  -1,  -10,  -26,  -39
2050134, 1710335282, "2024/3/13 13:8:2",  4,  -63,  1003,  0,  0,  0,  -10,  -26,  -40
2050334, 1710335282, "2024/3/13 13:8:2",  5,  -56,  1005,  0,  -1,  -1,  -9,  -25,  -38
2050534, 1710335282, "2024/3/13 13:8:2",  7,  -59,  1002,  0,  -1,  0,  -11,  -27,  -38
2050734, 1710335282, "2024/3/13 13:8:2",  4,  -61,  1007,  0,  0,  0,  -10,  -27,  -38
2050934, 1710335283, "2024/3/13 13:8:3",  4,  -54,  1005,  0,  0,  -1,  -11,  -28,  -39
2051134, 1710335283, "2024/3/13 13:8:3",  6,  -62,  1003,  0,  0,  0,  -11,  -26,  -40
2051334, 1710335283, "2024/3/13 13:8:3",  1,  -61,  1003,  0,  0,  -1,  -10,  -27,  -41
2051534, 1710335283, "2024/3/13 13:8:3",  4,  -57,  1004,  0,  0,  0,  -10,  -26,  -41
2051734, 1710335283, "2024/3/13 13:8:3",  9,  -58,  1003,  0,  0,  0,  -10,  -25,  -40
2051934, 1710335284, "2024/3/13 13:8:4",  2,  -58,  999,  1,  0,  -1,  -9,  -25,  -41
2052134, 1710335284, "2024/3/13 13:8:4",  11,  -54,  1003,  0,  -1,  -1,  -10,  -25,  -40
2052334, 1710335284, "2024/3/13 13:8:4",  7,  -56,  1004,  0,  -1,  -1,  -10,  -26,  -40
2052534, 1710335284, "2024/3/13 13:8:4",  3,  -61,  1005,  0,  0,  0,  -10,  -27,  -39
2052734, 1710335284, "2024/3/13 13:8:4",  3,  -58,  1000,  0,  0,  0,  -9,  -26,  -39
2052934, 1710335285, "2024/3/13 13:8:5",  7,  -60,  1001,  0,  0,  -1,  -11,  -25,  -40
2053134, 1710335285, "2024/3/13 13:8:5",  2,  -60,  1004,  0,  0,  -1,  -9,  -28,  -39
2053334, 1710335285, "2024/3/13 13:8:5",  6,  -56,  1002,  0,  0,  0,  -9,  -27,  -37
2053534, 1710335285, "2024/3/13 13:8:5",  7,  -63,  1001,  0,  0,  -1,  -9,  -25,  -39
2053734, 1710335285, "2024/3/13 13:8:5",  3,  -59,  1001,  0,  0,  0,  -9,  -26,  -40
2053934, 1710335286, "2024/3/13 13:8:6",  3,  -54,  1004,  0,  -1,  -1,  -10,  -25,  -38
2054134, 1710335286, "2024/3/13 13:8:6",  5,  -59,  1005,  0,  -1,  0,  -10,  -28,  -40
2054334, 1710335286, "2024/3/13 13:8:6",  3,  -61,  1006,  0,  0,  -1,  -10,  -25,  -39
2054534, 1710335286, "2024/3/13 13:8:6",  0,  -57,  1004,  0,  0,  0,  -10,  -27,  -39
2054734, 1710335286, "2024/3/13 13:8:6",  4,  -58,  1007,  0,  0,  0,  -10,  -28,  -39
2054934, 1710335287, "2024/3/13 13:8:7",  8,  -59,  1002,  0,  -1,  0,  -10,  -25,  -39
2055134, 1710335287, "2024/3/13 13:8:7",  1,  -55,  1004,  0,  0,  0,  -9,  -25,  -39
2055334, 1710335287, "2024/3/13 13:8:7",  4,  -59,  1006,  0,  0,  -1,  -8,  -24,  -38
2055534, 1710335287, "2024/3/13 13:8:7",  5,  -64,  1001,  0,  0,  -1,  -11,  -27,  -39
2055734, 1710335287, "2024/3/13 13:8:7",  0,  -54,  1005,  0,  0,  -1,  -9,  -27,  -40
2055934, 1710335288, "2024/3/13 13:8:8",  5,  -67,  1005,  0,  0,  0,  -11,  -26,  -38
2056134, 1710335288, "2024/3/13 13:8:8",  6,  -55,  1003,  0,  0,  0,  -10,  -25,  -40
2056334, 1710335288, "2024/3/13 13:8:8",  10,  -56,  1005,  0,  0,  0,  -11,  -25,  -40
2056534, 1710335288, "2024/3/13 13:8:8",  6,  -55,  1003,  0,  0,  0,  -9,  -27,  -39
2056734, 1710335288, "2024/3/13 13:8:8",  6,  -58,  1004,  0,  0,  0,  -9,  -27,  -41
2056934, 1710335289, "2024/3/13 13:8:9",  10,  -62,  1003,  0,  0,  -1,  -10,  -25,  -39
2057134, 1710335289, "2024/3/13 13:8:9",  3,  -55,  1003,  0,  0,  -1,  -9,  -26,  -41
2057334, 1710335289, "2024/3/13 13:8:9",  9,  -53,  1002,  0,  0,  -1,  -11,  -25,  -39
2057534, 1710335289, "2024/3/13 13:8:9",  11,  -57,  1004,  0,  0,  -1,  -11,  -26,  -39
2057734, 1710335289, "2024/3/13 13:8:9",  7,  -58,  1005,  0,  0,  -1,  -9,  -26,  -40
2057934, 1710335290, "2024/3/13 13:8:10",  5,  -59,  1003,  0,  0,  0,  -10,  -25,  -40
2058134, 1710335290, "2024/3/13 13:8:10",  3,  -58,  1003,  0,  0,  -1,  -10,  -27,  -39
2058334, 1710335290, "2024/3/13 13:8:10",  8,  -61,  1002,  0,  0,  -1,  -9,  -27,  -40
2058534, 1710335290, "2024/3/13 13:8:10",  8,  -58,  1002,  0,  0,  -1,  -10,  -25,  -39
2058734, 1710335290, "2024/3/13 13:8:10",  8,  -56,  1004,  0,  0,  0,  -10,  -27,  -39
2058934, 1710335291, "2024/3/13 13:8:11",  2,  -62,  1005,  0,  0,  0,  -10,  -26,  -40
2059134, 1710335291, "2024/3/13 13:8:11",  6,  -54,  1000,  0,  0,  0,  -10,  -26,  -40
2059334, 1710335291, "2024/3/13 13:8:11",  3,  -60,  1002,  0,  0,  0,  -8,  -27,  -38
2059534, 1710335291, "2024/3/13 13:8:11",  7,  -61,  1002,  0,  0,  -1,  -9,  -26,  -38
2059734, 1710335291, "2024/3/13 13:8:11",  7,  -58,  1003,  0,  0,  0,  -8,  -26,  -39
2059934, 1710335292, "2024/3/13 13:8:12",  4,  -59,  1002,  0,  0,  0,  -9,  -25,  -40
2060134, 1710335292, "2024/3/13 13:8:12",  4,  -61,  1003,  0,  0,  0,  -10,  -25,  -39
2060334, 1710335292, "2024/3/13 13:8:12",  4,  -54,  1002,  0,  0,  -1,  -9,  -23,  -39
2060534, 1710335292, "2024/3/13 13:8:12",  7,  -54,  1006,  0,  0,  -1,  -9,  -25,  -38
2060734, 1710335292, "2024/3/13 13:8:12",  5,  -57,  1005,  0,  0,  0,  -10,  -26,  -39
2060934, 1710335293, "2024/3/13 13:8:13",  6,  -51,  1001,  0,  0,  -1,  -11,  -27,  -39
2061134, 1710335293, "2024/3/13 13:8:13",  8,  -61,  1003,  0,  0,  -1,  -10,  -26,  -39
2061334, 1710335293, "2024/3/13 13:8:13",  3,  -59,  1004,  0,  0,  -1,  -10,  -26,  -38
2061534, 1710335293, "2024/3/13 13:8:13",  4,  -66,  1004,  0,  0,  0,  -11,  -26,  -38
2061734, 1710335293, "2024/3/13 13:8:13",  7,  -62,  1002,  0,  0,  0,  -8,  -25,  -38
2061934, 1710335294, "2024/3/13 13:8:14",  6,  -53,  1006,  0,  0,  -1,  -10,  -25,  -39
2062134, 1710335294, "2024/3/13 13:8:14",  6,  -46,  1001,  0,  0,  0,  -9,  -24,  -38
2062334, 1710335294, "2024/3/13 13:8:14",  0,  -54,  1003,  0,  0,  -1,  -10,  -26,  -39
2062534, 1710335294, "2024/3/13 13:8:14",  1,  -58,  1003,  0,  0,  -1,  -10,  -26,  -39
2062734, 1710335294, "2024/3/13 13:8:14",  2,  -58,  999,  0,  0,  0,  -9,  -25,  -38
2062934, 1710335295, "2024/3/13 13:8:15",  6,  -60,  1002,  0,  0,  0,  -10,  -25,  -39
2063134, 1710335295, "2024/3/13 13:8:15",  7,  -60,  1003,  0,  0,  -1,  -9,  -28,  -38
2063334, 1710335295, "2024/3/13 13:8:15",  6,  -61,  1007,  0,  0,  -1,  -11,  -27,  -40
2063534, 1710335295, "2024/3/13 13:8:15",  8,  -61,  1003,  0,  -1,  -1,  -10,  -26,  -40
2063734, 1710335295, "2024/3/13 13:8:15",  2,  -59,  1006,  0,  0,  -1,  -11,  -27,  -40
2063934, 1710335296, "2024/3/13 13:8:16",  8,  -56,  1007,  0,  0,  -1,  -10,  -26,  -40
2064134, 1710335296, "2024/3/13 13:8:16",  4,  -61,  1003,  0,  0,  0,  -11,  -25,  -40
2064334, 1710335296, "2024/3/13 13:8:16",  5,  -56,  1004,  0,  0,  0,  -9,  -26,  -40
2064534, 1710335296, "2024/3/13 13:8:16",  2,  -57,  1002,  0,  0,  0,  -10,  -28,  -39
2064734, 1710335296, "2024/3/13 13:8:16",  8,  -59,  1003,  0,  0,  -1,  -10,  -26,  -40
2064934, 1710335297, "2024/3/13 13:8:17",  3,  -62,  1000,  0,  0,  -1,  -11,  -26,  -39
2065134, 1710335297, "2024/3/13 13:8:17",  3,  -60,  1005,  0,  0,  -1,  -9,  -27,  -41
2065334, 1710335297, "2024/3/13 13:8:17",  0,  -63,  1004,  0,  0,  -1,  -10,  -26,  -40
2065534, 1710335297, "2024/3/13 13:8:17",  3,  -58,  1002,  0,  0,  -1,  -9,  -27,  -40
2065734, 1710335297, "2024/3/13 13:8:17",  4,  -61,  1006,  0,  0,  0,  -10,  -26,  -39
2065934, 1710335298, "2024/3/13 13:8:18",  1,  -62,  1001,  0,  0,  0,  -11,  -28,  -41
2066134, 1710335298, "2024/3/13 13:8:18",  5,  -62,  1001,  0,  0,  -1,  -10,  -25,  -40
2066334, 1710335298, "2024/3/13 13:8:18",  4,  -50,  1005,  0,  0,  -1,  -9,  -25,  -39
2066534, 1710335298, "2024/3/13 13:8:18",  12,  -62,  1003,  0,  0,  0,  -11,  -25,  -39
2066734, 1710335298, "2024/3/13 13:8:18",  -2,  -61,  997,  0,  0,  0,  -9,  -27,  -38
2066934, 1710335299, "2024/3/13 13:8:19",  9,  -58,  1007,  0,  0,  0,  -9,  -28,  -40
2067134, 1710335299, "2024/3/13 13:8:19",  2,  -54,  1000,  0,  0,  -1,  -9,  -27,  -39
2067334, 1710335299, "2024/3/13 13:8:19",  2,  -59,  1001,  0,  -1,  -1,  -11,  -26,  -38
2067534, 1710335299, "2024/3/13 13:8:19",  2,  -58,  1002,  0,  -1,  0,  -10,  -28,  -40
2067734, 1710335300, "2024/3/13 13:8:20",  6,  -64,  1002,  0,  0,  -1,  -9,  -26,  -39
2067934, 1710335300, "2024/3/13 13:8:20",  1,  -62,  1004,  0,  0,  0,  -11,  -25,  -39
2068134, 1710335300, "2024/3/13 13:8:20",  5,  -57,  1006,  0,  0,  0,  -10,  -27,  -39
2068334, 1710335300, "2024/3/13 13:8:20",  3,  -59,  1004,  0,  -1,  -1,  -10,  -26,  -40
2068534, 1710335300, "2024/3/13 13:8:20",  9,  -59,  1006,  0,  -1,  -1,  -9,  -25,  -40
2068734, 1710335301, "2024/3/13 13:8:21",  10,  -61,  1004,  0,  0,  -1,  -9,  -26,  -40
2068934, 1710335301, "2024/3/13 13:8:21",  6,  -64,  1004,  0,  0,  -1,  -9,  -27,  -39
2069134, 1710335301, "2024/3/13 13:8:21",  0,  -60,  1003,  0,  -1,  0,  -9,  -25,  -41
2069334, 1710335301, "2024/3/13 13:8:21",  7,  -57,  1004,  0,  0,  -1,  -9,  -27,  -38
2069534, 1710335301, "2024/3/13 13:8:21",  7,  -54,  1005,  0,  0,  0,  -9,  -25,  -40
2069734, 1710335302, "2024/3/13 13:8:22",  4,  -56,  1002,  0,  0,  -1,  -8,  -27,  -39
2069934, 1710335302, "2024/3/13 13:8:22",  7,  -60,  1001,  0,  0,  -1,  -10,  -25,  -39
2070134, 1710335302, "2024/3/13 13:8:22",  7,  -54,  1006,  0,  0,  -1,  -9,  -26,  -41
2070334, 1710335302, "2024/3/13 13:8:22",  4,  -50,  1002,  0,  0,  0,  -10,  -25,  -40
2070534, 1710335302, "2024/3/13 13:8:22",  5,  -55,  1001,  0,  0,  -1,  -10,  -25,  -38
2070734, 1710335303, "2024/3/13 13:8:23",  3,  -59,  1000,  0,  0,  -1,  -11,  -27,  -39
2070934, 1710335303, "2024/3/13 13:8:23",  6,  -64,  1002,  0,  0,  -1,  -9,  -25,  -40
2071134, 1710335303, "2024/3/13 13:8:23",  6,  -58,  1006,  0,  0,  -1,  -9,  -26,  -40
2071334, 1710335303, "2024/3/13 13:8:23",  5,  -60,  1004,  0,  0,  0,  -9,  -25,  -38
2071534, 1710335303, "2024/3/13 13:8:23",  4,  -60,  1001,  0,  0,  0,  -11,  -26,  -39
2071734, 1710335304, "2024/3/13 13:8:24",  8,  -56,  1004,  0,  0,  -1,  -11,  -25,  -38
2071934, 1710335304, "2024/3/13 13:8:24",  -3,  -58,  998,  0,  0,  -1,  -9,  -26,  -39
2072134, 1710335304, "2024/3/13 13:8:24",  9,  -59,  1007,  0,  0,  -1,  -11,  -26,  -40
2072334, 1710335304, "2024/3/13 13:8:24",  4,  -60,  1000,  0,  0,  0,  -10,  -26,  -40
2072534, 1710335304, "2024/3/13 13:8:24",  3,  -55,  1001,  0,  -1,  0,  -10,  -27,  -40
2072734, 1710335305, "2024/3/13 13:8:25",  3,  -62,  1000,  0,  0,  0,  -9,  -25,  -40
2072934, 1710335305, "2024/3/13 13:8:25",  5,  -52,  1002,  0,  -1,  -1,  -10,  -26,  -39
2073134, 1710335305, "2024/3/13 13:8:25",  6,  -58,  1000,  0,  0,  -1,  -10,  -25,  -39
2073334, 1710335305, "2024/3/13 13:8:25",  6,  -57,  1001,  0,  0,  -1,  -10,  -27,  -39
2073534, 1710335305, "2024/3/13 13:8:25",  5,  -56,  1006,  0,  0,  0,  -10,  -25,  -39
2073734, 1710335306, "2024/3/13 13:8:26",  4,  -60,  1004,  0,  0,  -1,  -11,  -25,  -38
2073934, 1710335306, "2024/3/13 13:8:26",  2,  -60,  1003,  0,  0,  0,  -9,  -26,  -40
2074134, 1710335306, "2024/3/13 13:8:26",  7,  -58,  1000,  0,  0,  -1,  -9,  -25,  -39
2074334, 1710335306, "2024/3/13 13:8:26",  7,  -55,  1001,  0,  0,  0,  -10,  -25,  -40
2074534, 1710335306, "2024/3/13 13:8:26",  6,  -63,  999,  0,  0,  0,  -9,  -25,  -40
2074734, 1710335307, "2024/3/13 13:8:27",  6,  -62,  1002,  0,  0,  0,  -10,  -24,  -39
2074934, 1710335307, "2024/3/13 13:8:27",  2,  -59,  999,  0,  0,  0,  -10,  -25,  -40
2075134, 1710335307, "2024/3/13 13:8:27",  3,  -55,  1002,  0,  0,  -1,  -9,  -26,  -40
2075334, 1710335307, "2024/3/13 13:8:27",  3,  -57,  1004,  0,  -1,  0,  -10,  -26,  -38
2075534, 1710335307, "2024/3/13 13:8:27",  5,  -52,  1002,  0,  0,  -1,  -10,  -26,  -39
2075734, 1710335308, "2024/3/13 13:8:28",  3,  -58,  1005,  0,  0,  -1,  -9,  -28,  -39
2075934, 1710335308, "2024/3/13 13:8:28",  3,  -59,  1003,  0,  0,  -1,  -9,  -26,  -40
2076134, 1710335308, "2024/3/13 13:8:28",  0,  -59,  1006,  0,  0,  0,  -10,  -26,  -38
2076334, 1710335308, "2024/3/13 13:8:28",  8,  -54,  1008,  0,  0,  0,  -9,  -25,  -39
2076534, 1710335308, "2024/3/13 13:8:28",  6,  -56,  1004,  0,  0,  -1,  -9,  -26,  -38
2076734, 1710335309, "2024/3/13 13:8:29",  3,  -63,  1003,  0,  -1,  -1,  -11,  -28,  -39
2076934, 1710335309, "2024/3/13 13:8:29",  5,  -58,  1005,  0,  0,  0,  -9,  -27,  -38
2077134, 1710335309, "2024/3/13 13:8:29",  4,  -53,  1003,  0,  0,  -1,  -10,  -27,  -39
2077334, 1710335309, "2024/3/13 13:8:29",  5,  -54,  1003,  0,  0,  -1,  -9,  -25,  -38
2077534, 1710335309, "2024/3/13 13:8:29",  2,  -62,  1003,  0,  0,  0,  -10,  -27,  -39
2077734, 1710335310, "2024/3/13 13:8:30",  5,  -54,  1005,  0,  0,  0,  -10,  -26,  -40
2077934, 1710335310, "2024/3/13 13:8:30",  4,  -54,  1007,  0,  0,  0,  -11,  -25,  -39
2078134, 1710335310, "2024/3/13 13:8:30",  6,  -52,  1004,  0,  0,  -1,  -9,  -26,  -39
2078334, 1710335310, "2024/3/13 13:8:30",  5,  -55,  1005,  0,  0,  -1,  -10,  -26,  -38
2078534, 1710335310, "2024/3/13 13:8:30",  3,  -52,  1002,  0,  0,  0,  -10,  -26,  -41
2078734, 1710335311, "2024/3/13 13:8:31",  4,  -51,  1003,  0,  0,  0,  -9,  -27,  -39
2078934, 1710335311, "2024/3/13 13:8:31",  4,  -64,  1004,  0,  0,  -1,  -9,  -26,  -40
2079134, 1710335311, "2024/3/13 13:8:31",  4,  -59,  1000,  0,  0,  -1,  -9,  -25,  -39
2079334, 1710335311, "2024/3/13 13:8:31",  7,  -56,  1003,  0,  -1,  -1,  -10,  -26,  -40
2079534, 1710335311, "2024/3/13 13:8:31",  3,  -53,  1001,  0,  0,  0,  -10,  -26,  -41
2079734, 1710335312, "2024/3/13 13:8:32",  5,  -58,  1005,  0,  0,  -1,  -9,  -26,  -39
2079934, 1710335312, "2024/3/13 13:8:32",  5,  -62,  1000,  0,  0,  0,  -10,  -26,  -39
2080134, 1710335312, "2024/3/13 13:8:32",  1,  -54,  1003,  0,  0,  0,  -10,  -24,  -39
2080334, 1710335312, "2024/3/13 13:8:32",  7,  -57,  1005,  0,  0,  -1,  -10,  -26,  -38
2080534, 1710335312, "2024/3/13 13:8:32",  9,  -55,  1002,  0,  -1,  -1,  -10,  -26,  -40
2080734, 1710335313, "2024/3/13 13:8:33",  1,  -57,  1005,  0,  -1,  -1,  -9,  -27,  -38
2080934, 1710335313, "2024/3/13 13:8:33",  9,  -56,  1001,  0,  0,  0,  -9,  -26,  -40
2081134, 1710335313, "2024/3/13 13:8:33",  -2,  -58,  1001,  0,  0,  -1,  -11,  -27,  -38
2081334, 1710335313, "2024/3/13 13:8:33",  5,  -58,  1006,  0,  -1,  -1,  -11,  -25,  -40
2081534, 1710335313, "2024/3/13 13:8:33",  7,  -59,  1003,  0,  0,  -1,  -9,  -26,  -38
2081734, 1710335314, "2024/3/13 13:8:34",  2,  -60,  1003,  0,  0,  0,  -10,  -27,  -40
2081934, 1710335314, "2024/3/13 13:8:34",  3,  -56,  1005,  0,  0,  -1,  -10,  -26,  -39
2082134, 1710335314, "2024/3/13 13:8:34",  3,  -61,  1000,  0,  -1,  -1,  -9,  -27,  -40
2082334, 1710335314, "2024/3/13 13:8:34",  6,  -58,  1000,  0,  -1,  -1,  -10,  -25,  -40
2082534, 1710335314, "2024/3/13 13:8:34",  0,  -56,  1005,  0,  0,  0,  -9,  -28,  -40
2082734, 1710335315, "2024/3/13 13:8:35",  5,  -59,  999,  0,  0,  0,  -9,  -24,  -40
2082934, 1710335315, "2024/3/13 13:8:35",  5,  -60,  1000,  0,  0,  0,  -9,  -28,  -40
2083134, 1710335315, "2024/3/13 13:8:35",  5,  -62,  1002,  0,  0,  0,  -11,  -25,  -39
2083334, 1710335315, "2024/3/13 13:8:35",  3,  -54,  1005,  0,  0,  -1,  -11,  -26,  -39
2083534, 1710335315, "2024/3/13 13:8:35",  0,  -64,  1003,  0,  -1,  -1,  -10,  -25,  -39
2083734, 1710335316, "2024/3/13 13:8:36",  9,  -57,  1001,  0,  0,  -1,  -11,  -27,  -40
2083934, 1710335316, "2024/3/13 13:8:36",  6,  -60,  1003,  0,  0,  -1,  -11,  -26,  -40
2084134, 1710335316, "2024/3/13 13:8:36",  0,  -56,  1003,  0,  0,  -1,  -9,  -28,  -40
2084334, 1710335316, "2024/3/13 13:8:36",  4,  -58,  1004,  0,  0,  0,  -8,  -25,  -40
2084534, 1710335316, "2024/3/13 13:8:36",  6,  -52,  1004,  0,  0,  0,  -10,  -26,  -38
2084734, 1710335317, "2024/3/13 13:8:37",  6,  -58,  1000,  0,  0,  -1,  -10,  -26,  -39
2084934, 1710335317, "2024/3/13 13:8:37",  1,  -56,  1003,  0,  0,  -1,  -10,  -26,  -39
2085134, 1710335317, "2024/3/13 13:8:37",  4,  -56,  999,  0,  0,  -1,  -10,  -24,  -40
2085334, 1710335317, "2024/3/13 13:8:37",  0,  -62,  1001,  0,  0,  -1,  -10,  -26,  -39
2085534, 1710335317, "2024/3/13 13:8:37",  9,  -55,  1003,  0,  0,  -1,  -11,  -25,  -39
2085734, 1710335318, "2024/3/13 13:8:38",  7,  -57,  1001,  0,  0,  -1,  -10,  -26,  -39
2085934, 1710335318, "2024/3/13 13:8:38",  5,  -56,  1003,  0,  0,  0,  -10,  -26,  -39
2086134, 1710335318, "2024/3/13 13:8:38",  -1,  -52,  1001,  0,  -1,  -1,  -10,  -25,  -39
2086334, 1710335318, "2024/3/13 13:8:38",  -1,  -56,  1000,  0,  -1,  -1,  -10,  -27,  -40
2086534, 1710335318, "2024/3/13 13:8:38",  2,  -61,  1002,  0,  0,  -1,  -10,  -24,  -36
2086734, 1710335319, "2024/3/13 13:8:39",  5,  -53,  1006,  0,  0,  -1,  -11,  -26,  -39
2086934, 1710335319, "2024/3/13 13:8:39",  1,  -59,  1002,  0,  0,  0,  -11,  -26,  -40
2087134, 1710335319, "2024/3/13 13:8:39",  7,  -51,  1003,  0,  0,  -1,  -9,  -26,  -38
2087334, 1710335319, "2024/3/13 13:8:39",  0,  -56,  1000,  0,  0,  -1,  -10,  -25,  -39
2087534, 1710335319, "2024/3/13 13:8:39",  1,  -64,  1001,  0,  -1,  -1,  -10,  -26,  -40
2087734, 1710335320, "2024/3/13 13:8:40",  8,  -54,  1001,  0,  0,  -1,  -9,  -26,  -38
2087934, 1710335320, "2024/3/13 13:8:40",  2,  -55,  1002,  0,  0,  -1,  -9,  -28,  -40
2088134, 1710335320, "2024/3/13 13:8:40",  5,  -53,  1005,  0,  0,  -1,  -11,  -25,  -38
2088334, 1710335320, "2024/3/13 13:8:40",  3,  -57,  1002,  0,  0,  0,  -9,  -26,  -39
2088534, 1710335320, "2024/3/13 13:8:40",  3,  -63,  1002,  0,  0,  -1,  -9,  -27,  -40
2088734, 1710335321, "2024/3/13 13:8:41",  2,  -62,  1002,  0,  0,  -1,  -7,  -27,  -39
2088934, 1710335321, "2024/3/13 13:8:41",  7,  -61,  1002,  0,  0,  -1,  -9,  -27,  -38
2089134, 1710335321, "2024/3/13 13:8:41",  5,  -56,  1001,  0,  0,  -1,  -10,  -26,  -36
2089334, 1710335321, "2024/3/13 13:8:41",  5,  -61,  998,  0,  0,  0,  -9,  -25,  -39
2089534, 1710335321, "2024/3/13 13:8:41",  6,  -56,  1001,  0,  -1,  -1,  -9,  -27,  -38
2089734, 1710335322, "2024/3/13 13:8:42",  2,  -57,  1007,  0,  0,  -1,  -9,  -26,  -39
2089934, 1710335322, "2024/3/13 13:8:42",  7,  -63,  1001,  0,  0,  -1,  -11,  -26,  -38
2090134, 1710335322, "2024/3/13 13:8:42",  6,  -54,  1000,  0,  0,  0,  -9,  -26,  -39
2090334, 1710335322, "2024/3/13 13:8:42",  9,  -58,  1006,  0,  0,  0,  -9,  -26,  -37
2090534, 1710335322, "2024/3/13 13:8:42",  9,  -57,  1006,  0,  0,  -1,  -8,  -25,  -39
2090734, 1710335323, "2024/3/13 13:8:43",  4,  -56,  1002,  0,  0,  -1,  -9,  -25,  -38
2090934, 1710335323, "2024/3/13 13:8:43",  4,  -60,  1000,  0,  0,  -1,  -10,  -26,  -37
2091134, 1710335323, "2024/3/13 13:8:43",  9,  -63,  1003,  0,  0,  -1,  -11,  -25,  -39
2091334, 1710335323, "2024/3/13 13:8:43",  3,  -61,  1005,  0,  0,  -1,  -9,  -25,  -39
2091534, 1710335323, "2024/3/13 13:8:43",  2,  -55,  1005,  0,  0,  -1,  -10,  -25,  -37
2091734, 1710335324, "2024/3/13 13:8:44",  5,  -58,  1003,  0,  0,  0,  -9,  -27,  -38
2091934, 1710335324, "2024/3/13 13:8:44",  5,  -54,  1004,  0,  0,  -1,  -10,  -27,  -39
2092134, 1710335324, "2024/3/13 13:8:44",  6,  -59,  1002,  0,  0,  0,  -8,  -27,  -39
2092334, 1710335324, "2024/3/13 13:8:44",  6,  -59,  1001,  0,  0,  0,  -10,  -27,  -39
2092534, 1710335324, "2024/3/13 13:8:44",  9,  -56,  1008,  0,  0,  0,  -10,  -26,  -38
2092734, 1710335325, "2024/3/13 13:8:45",  6,  -55,  1004,  0,  0,  -1,  -11,  -26,  -39
2092934, 1710335325, "2024/3/13 13:8:45",  -1,  -60,  999,  0,  0,  -1,  -11,  -26,  -36
2093134, 1710335325, "2024/3/13 13:8:45",  0,  -60,  1001,  0,  0,  -1,  -10,  -27,  -39
2093334, 1710335325, "2024/3/13 13:8:45",  5,  -59,  1002,  0,  0,  -1,  -10,  -26,  -39
2093534, 1710335325, "2024/3/13 13:8:45",  3,  -56,  1004,  0,  0,  -1,  -9,  -26,  -39
2093734, 1710335326, "2024/3/13 13:8:46",  4,  -59,  1003,  0,  0,  0,  -12,  -27,  -39
2093934, 1710335326, "2024/3/13 13:8:46",  8,  -57,  1000,  0,  0,  0,  -10,  -27,  -40
2094134, 1710335326, "2024/3/13 13:8:46",  6,  -59,  1009,  0,  0,  -1,  -9,  -26,  -39
2094334, 1710335326, "2024/3/13 13:8:46",  6,  -55,  1006,  0,  0,  -1,  -11,  -27,  -38
2094534, 1710335326, "2024/3/13 13:8:46",  3,  -63,  1002,  0,  0,  -1,  -10,  -26,  -39
2094734, 1710335327, "2024/3/13 13:8:47",  3,  -59,  1003,  0,  -1,  -1,  -10,  -25,  -37
2094934, 1710335327, "2024/3/13 13:8:47",  5,  -53,  1004,  0,  0,  -1,  -10,  -26,  -39
2095134, 1710335327, "2024/3/13 13:8:47",  2,  -59,  1001,  0,  0,  -1,  -8,  -25,  -38
2095334, 1710335327, "2024/3/13 13:8:47",  9,  -59,  1004,  0,  0,  -1,  -9,  -26,  -39
2095534, 1710335327, "2024/3/13 13:8:47",  5,  -54,  1000,  0,  -1,  0,  -10,  -26,  -39
2095734, 1710335328, "2024/3/13 13:8:48",  6,  -55,  1002,  0,  0,  0,  -10,  -27,  -40
2095934, 1710335328, "2024/3/13 13:8:48",  5,  -61,  1003,  0,  0,  -1,  -10,  -25,  -39
2096134, 1710335328, "2024/3/13 13:8:48",  5,  -52,  1005,  0,  0,  0,  -10,  -27,  -40
2096334, 1710335328, "2024/3/13 13:8:48",  6,  -50,  1004,  0,  0,  0,  -9,  -25,  -37
2096534, 1710335328, "2024/3/13 13:8:48",  2,  -58,  1004,  0,  0,  -1,  -10,  -27,  -39
2096734, 1710335329, "2024/3/13 13:8:49",  6,  -58,  1001,  0,  -1,  -1,  -9,  -26,  -38
2096934, 1710335329, "2024/3/13 13:8:49",  3,  -56,  999,  0,  -1,  -1,  -10,  -26,  -39
2097134, 1710335329, "2024/3/13 13:8:49",  5,  -55,  1002,  0,  0,  -1,  -9,  -27,  -38
2097334, 1710335329, "2024/3/13 13:8:49",  4,  -55,  1003,  0,  0,  -1,  -10,  -25,  -38
2097534, 1710335329, "2024/3/13 13:8:49",  0,  -61,  1000,  0,  0,  -1,  -9,  -27,  -38
2097734, 1710335330, "2024/3/13 13:8:50",  9,  -60,  1002,  0,  0,  0,  -9,  -25,  -39
2097934, 1710335330, "2024/3/13 13:8:50",  11,  -58,  1010,  0,  0,  0,  -10,  -25,  -39
2098134, 1710335330, "2024/3/13 13:8:50",  5,  -61,  1003,  0,  0,  -1,  -10,  -26,  -38
2098334, 1710335330, "2024/3/13 13:8:50",  2,  -57,  1006,  0,  0,  -1,  -11,  -25,  -39
2098534, 1710335330, "2024/3/13 13:8:50",  7,  -59,  1003,  0,  0,  0,  -10,  -27,  -38
2098734, 1710335331, "2024/3/13 13:8:51",  5,  -59,  1007,  0,  0,  -1,  -8,  -27,  -39
2098934, 1710335331, "2024/3/13 13:8:51",  3,  -60,  1005,  0,  0,  -1,  -9,  -26,  -40
2099134, 1710335331, "2024/3/13 13:8:51",  6,  -54,  1002,  0,  0,  -1,  -10,  -27,  -39
2099334, 1710335331, "2024/3/13 13:8:51",  12,  -56,  1007,  0,  -1,  -1,  -8,  -25,  -39
2099534, 1710335331, "2024/3/13 13:8:51",  8,  -58,  1005,  0,  0,  0,  -11,  -27,  -40
2099734, 1710335332, "2024/3/13 13:8:52",  4,  -51,  1002,  0,  0,  0,  -9,  -25,  -37
2099934, 1710335332, "2024/3/13 13:8:52",  7,  -59,  1001,  0,  0,  -1,  -9,  -24,  -39
2100134, 1710335332, "2024/3/13 13:8:52",  8,  -64,  1002,  0,  0,  0,  -10,  -26,  -39
2100334, 1710335332, "2024/3/13 13:8:52",  4,  -53,  1003,  0,  0,  0,  -11,  -25,  -39
2100534, 1710335332, "2024/3/13 13:8:52",  3,  -52,  1005,  0,  -1,  -1,  -9,  -26,  -39
2100734, 1710335333, "2024/3/13 13:8:53",  7,  -58,  1002,  0,  0,  -1,  -9,  -26,  -37
2100934, 1710335333, "2024/3/13 13:8:53",  5,  -61,  1002,  0,  0,  -1,  -10,  -27,  -39
2101134, 1710335333, "2024/3/13 13:8:53",  6,  -61,  1002,  0,  0,  -1,  -11,  -27,  -39
2101334, 1710335333, "2024/3/13 13:8:53",  7,  -53,  1001,  0,  0,  -1,  -9,  -27,  -39
2101534, 1710335333, "2024/3/13 13:8:53",  6,  -59,  1004,  0,  -1,  -1,  -10,  -26,  -37
2101734, 1710335334, "2024/3/13 13:8:54",  6,  -56,  1002,  0,  0,  0,  -9,  -25,  -38
2101934, 1710335334, "2024/3/13 13:8:54",  0,  -56,  1002,  0,  0,  0,  -9,  -26,  -38
2102134, 1710335334, "2024/3/13 13:8:54",  1,  -60,  1000,  0,  -1,  0,  -8,  -24,  -38
2102334, 1710335334, "2024/3/13 13:8:54",  5,  -59,  1002,  0,  0,  0,  -10,  -25,  -38
2102534, 1710335334, "2024/3/13 13:8:54",  2,  -60,  999,  0,  0,  -1,  -10,  -24,  -39
2102734, 1710335335, "2024/3/13 13:8:55",  3,  -57,  1008,  0,  0,  -1,  -10,  -27,  -39
2102934, 1710335335, "2024/3/13 13:8:55",  1,  -56,  1004,  0,  0,  0,  -10,  -25,  -39
2103134, 1710335335, "2024/3/13 13:8:55",  5,  -58,  1001,  0,  -1,  -1,  -10,  -26,  -39
2103334, 1710335335, "2024/3/13 13:8:55",  7,  -63,  1009,  0,  -1,  0,  -10,  -26,  -37
2103534, 1710335335, "2024/3/13 13:8:55",  6,  -57,  1002,  0,  0,  -1,  -11,  -26,  -39
2103734, 1710335336, "2024/3/13 13:8:56",  5,  -55,  1008,  0,  0,  -1,  -10,  -27,  -40
2103934, 1710335336, "2024/3/13 13:8:56",  6,  -57,  1002,  0,  0,  -1,  -10,  -26,  -40
2104134, 1710335336, "2024/3/13 13:8:56",  3,  -59,  1005,  0,  0,  0,  -12,  -25,  -39
2104334, 1710335336, "2024/3/13 13:8:56",  0,  -57,  1003,  0,  0,  0,  -10,  -26,  -38
2104534, 1710335336, "2024/3/13 13:8:56",  4,  -57,  1003,  0,  -1,  -1,  -10,  -26,  -40
2104734, 1710335337, "2024/3/13 13:8:57",  6,  -62,  1005,  0,  0,  -1,  -9,  -27,  -39
2104934, 1710335337, "2024/3/13 13:8:57",  3,  -55,  1006,  0,  -1,  -1,  -10,  -27,  -39
2105134, 1710335337, "2024/3/13 13:8:57",  6,  -53,  1003,  0,  0,  -1,  -8,  -25,  -39
2105334, 1710335337, "2024/3/13 13:8:57",  7,  -53,  1003,  0,  0,  -1,  -9,  -25,  -39
2105534, 1710335337, "2024/3/13 13:8:57",  6,  -56,  1002,  0,  0,  -1,  -10,  -26,  -38
2105734, 1710335338, "2024/3/13 13:8:58",  3,  -61,  1005,  0,  0,  0,  -8,  -26,  -39
2105934, 1710335338, "2024/3/13 13:8:58",  3,  -62,  1003,  0,  0,  -1,  -11,  -26,  -39
2106134, 1710335338, "2024/3/13 13:8:58",  3,  -58,  1000,  0,  0,  0,  -9,  -28,  -38
2106334, 1710335338, "2024/3/13 13:8:58",  6,  -53,  1003,  0,  0,  -1,  -10,  -27,  -39
2106534, 1710335338, "2024/3/13 13:8:58",  3,  -59,  1000,  0,  0,  -1,  -9,  -26,  -39
2106734, 1710335339, "2024/3/13 13:8:59",  0,  -60,  1001,  0,  0,  0,  -9,  -26,  -38
2106934, 1710335339, "2024/3/13 13:8:59",  6,  -55,  1002,  0,  -1,  0,  -10,  -26,  -39
2107134, 1710335339, "2024/3/13 13:8:59",  6,  -53,  1004,  0,  0,  -1,  -10,  -25,  -39
2107334, 1710335339, "2024/3/13 13:8:59",  2,  -60,  1003,  0,  0,  0,  -10,  -25,  -37
2107534, 1710335339, "2024/3/13 13:8:59",  5,  -61,  1004,  0,  0,  -1,  -9,  -26,  -40
2107734, 1710335340, "2024/3/13 13:9:0",  3,  -57,  1002,  0,  0,  -1,  -8,  -26,  -39
2107934, 1710335340, "2024/3/13 13:9:0",  4,  -58,  1002,  0,  -1,  -1,  -10,  -27,  -39
2108134, 1710335340, "2024/3/13 13:9:0",  6,  -54,  1003,  0,  0,  0,  -10,  -24,  -38
2108334, 1710335340, "2024/3/13 13:9:0",  4,  -60,  1005,  0,  0,  0,  -10,  -25,  -36
2108534, 1710335340, "2024/3/13 13:9:0",  4,  -56,  1004,  0,  -1,  0,  -11,  -26,  -40
2108734, 1710335341, "2024/3/13 13:9:1",  6,  -58,  1002,  0,  0,  -1,  -10,  -25,  -39
2108934, 1710335341, "2024/3/13 13:9:1",  5,  -58,  1002,  0,  0,  0,  -9,  -27,  -37
2109134, 1710335341, "2024/3/13 13:9:1",  4,  -59,  1002,  0,  0,  0,  -9,  -25,  -39
2109334, 1710335341, "2024/3/13 13:9:1",  6,  -60,  1006,  0,  0,  -1,  -11,  -27,  -38
2109534, 1710335341, "2024/3/13 13:9:1",  2,  -58,  1001,  0,  0,  -1,  -10,  -27,  -38
2109734, 1710335342, "2024/3/13 13:9:2",  5,  -58,  1001,  0,  0,  -1,  -9,  -25,  -39
2109934, 1710335342, "2024/3/13 13:9:2",  2,  -58,  1002,  0,  -1,  -1,  -10,  -27,  -39
2110134, 1710335342, "2024/3/13 13:9:2",  5,  -56,  1004,  0,  0,  0,  -10,  -26,  -37
2110334, 1710335342, "2024/3/13 13:9:2",  7,  -59,  1003,  0,  0,  0,  -10,  -26,  -37
2110534, 1710335342, "2024/3/13 13:9:2",  5,  -59,  1003,  0,  0,  0,  -10,  -25,  -39
2110734, 1710335343, "2024/3/13 13:9:3",  2,  -58,  1000,  0,  0,  -1,  -9,  -27,  -39
2110934, 1710335343, "2024/3/13 13:9:3",  7,  -56,  1003,  0,  0,  -1,  -11,  -25,  -39
2111134, 1710335343, "2024/3/13 13:9:3",  4,  -51,  1005,  0,  0,  -1,  -9,  -25,  -38
2111334, 1710335343, "2024/3/13 13:9:3",  4,  -55,  1003,  0,  0,  0,  -9,  -26,  -39
2111534, 1710335343, "2024/3/13 13:9:3",  4,  -61,  1005,  0,  0,  0,  -8,  -28,  -39
2111734, 1710335344, "2024/3/13 13:9:4",  3,  -61,  1004,  0,  0,  0,  -9,  -26,  -40
2111934, 1710335344, "2024/3/13 13:9:4",  4,  -58,  1004,  0,  0,  -1,  -9,  -27,  -37
2112134, 1710335344, "2024/3/13 13:9:4",  3,  -56,  1007,  0,  0,  -1,  -9,  -25,  -37
2112334, 1710335344, "2024/3/13 13:9:4",  9,  -59,  1006,  0,  0,  0,  -9,  -25,  -37
2112534, 1710335344, "2024/3/13 13:9:4",  7,  -61,  1002,  0,  0,  -1,  -10,  -26,  -37
2112734, 1710335345, "2024/3/13 13:9:5",  4,  -59,  1001,  0,  0,  0,  -9,  -27,  -39
2112934, 1710335345, "2024/3/13 13:9:5",  2,  -55,  1004,  0,  0,  -1,  -9,  -27,  -38
2113134, 1710335345, "2024/3/13 13:9:5",  5,  -57,  1003,  0,  0,  0,  -8,  -25,  -38
2113334, 1710335345, "2024/3/13 13:9:5",  5,  -52,  1008,  0,  0,  0,  -11,  -26,  -38
2113534, 1710335345, "2024/3/13 13:9:5",  4,  -58,  1002,  0,  0,  0,  -10,  -26,  -40
2113734, 1710335346, "2024/3/13 13:9:6",  4,  -61,  1004,  0,  0,  0,  -10,  -26,  -39
2113934, 1710335346, "2024/3/13 13:9:6",  0,  -59,  1000,  0,  -1,  -1,  -9,  -27,  -39
2114134, 1710335346, "2024/3/13 13:9:6",  5,  -58,  1004,  0,  0,  -1,  -10,  -24,  -39
2114334, 1710335346, "2024/3/13 13:9:6",  9,  -56,  1006,  0,  0,  -1,  -11,  -26,  -38
2114534, 1710335346, "2024/3/13 13:9:6",  -3,  -56,  1002,  0,  -1,  0,  -10,  -25,  -39
2114734, 1710335347, "2024/3/13 13:9:7",  10,  -55,  1004,  0,  0,  -1,  -9,  -24,  -40
2114934, 1710335347, "2024/3/13 13:9:7",  5,  -60,  1005,  0,  0,  0,  -11,  -26,  -38
2115134, 1710335347, "2024/3/13 13:9:7",  12,  -55,  1005,  0,  0,  0,  -9,  -25,  -38
2115334, 1710335347, "2024/3/13 13:9:7",  8,  -57,  1006,  0,  -1,  0,  -10,  -27,  -40
2115534, 1710335347, "2024/3/13 13:9:7",  4,  -62,  1002,  0,  -1,  0,  -10,  -25,  -39
2115734, 1710335348, "2024/3/13 13:9:8",  5,  -62,  1000,  0,  0,  -1,  -8,  -26,  -39
2115934, 1710335348, "2024/3/13 13:9:8",  9,  -55,  1004,  0,  -1,  0,  -7,  -27,  -38
2116134, 1710335348, "2024/3/13 13:9:8",  5,  -57,  1008,  0,  0,  0,  -9,  -24,  -40
2116334, 1710335348, "2024/3/13 13:9:8",  8,  -58,  1002,  0,  0,  0,  -9,  -26,  -39
2116534, 1710335348, "2024/3/13 13:9:8",  5,  -56,  1002,  0,  -1,  0,  -10,  -27,  -39
2116734, 1710335349, "2024/3/13 13:9:9",  4,  -56,  1003,  0,  0,  -1,  -9,  -27,  -38
2116934, 1710335349, "2024/3/13 13:9:9",  4,  -55,  1004,  0,  0,  0,  -10,  -26,  -39
2117134, 1710335349, "2024/3/13 13:9:9",  6,  -58,  1004,  0,  0,  0,  -12,  -26,  -38
2117334, 1710335349, "2024/3/13 13:9:9",  0,  -61,  1002,  0,  0,  -1,  -11,  -27,  -39
2117534, 1710335349, "2024/3/13 13:9:9",  4,  -56,  1002,  0,  0,  0,  -10,  -27,  -38
2117734, 1710335350, "2024/3/13 13:9:10",  8,  -60,  1001,  0,  0,  0,  -10,  -25,  -39
2117934, 1710335350, "2024/3/13 13:9:10",  7,  -60,  1005,  0,  0,  -1,  -10,  -28,  -38
2118134, 1710335350, "2024/3/13 13:9:10",  1,  -58,  1000,  0,  0,  0,  -9,  -26,  -40
2118334, 1710335350, "2024/3/13 13:9:10",  10,  -55,  1002,  0,  0,  -1,  -10,  -26,  -38
2118534, 1710335350, "2024/3/13 13:9:10",  6,  -63,  1002,  0,  0,  -1,  -10,  -27,  -40
2118734, 1710335351, "2024/3/13 13:9:11",  3,  -59,  1003,  0,  0,  0,  -10,  -28,  -39
2118934, 1710335351, "2024/3/13 13:9:11",  6,  -56,  1000,  0,  0,  -1,  -10,  -26,  -38
2119134, 1710335351, "2024/3/13 13:9:11",  6,  -58,  1000,  0,  0,  -1,  -8,  -27,  -39
2119334, 1710335351, "2024/3/13 13:9:11",  6,  -57,  1003,  0,  0,  -1,  -8,  -26,  -39
2119534, 1710335351, "2024/3/13 13:9:11",  2,  -56,  1004,  0,  0,  -1,  -10,  -27,  -38
2119734, 1710335352, "2024/3/13 13:9:12",  2,  -56,  1002,  0,  0,  -1,  -10,  -25,  -39
2119934, 1710335352, "2024/3/13 13:9:12",  4,  -58,  1004,  0,  0,  -1,  -9,  -27,  -39
2120134, 1710335352, "2024/3/13 13:9:12",  5,  -60,  1001,  0,  0,  0,  -10,  -26,  -39
2120334, 1710335352, "2024/3/13 13:9:12",  7,  -62,  1002,  0,  0,  -1,  -9,  -25,  -38
2120534, 1710335352, "2024/3/13 13:9:12",  4,  -56,  1002,  0,  -1,  -1,  -8,  -26,  -38
2120734, 1710335353, "2024/3/13 13:9:13",  6,  -53,  1005,  0,  0,  0,  -10,  -26,  -38
2120934, 1710335353, "2024/3/13 13:9:13",  6,  -58,  1001,  0,  0,  0,  -10,  -25,  -38
2121134, 1710335353, "2024/3/13 13:9:13",  -1,  -53,  1002,  0,  0,  0,  -11,  -28,  -38
2121334, 1710335353, "2024/3/13 13:9:13",  4,  -56,  1004,  0,  0,  0,  -9,  -26,  -40
2121534, 1710335353, "2024/3/13 13:9:13",  3,  -63,  1002,  0,  0,  -1,  -10,  -27,  -38
2121734, 1710335354, "2024/3/13 13:9:14",  7,  -58,  1006,  0,  0,  0,  -10,  -26,  -38
2121934, 1710335354, "2024/3/13 13:9:14",  5,  -61,  1002,  0,  0,  -1,  -9,  -27,  -39
2122134, 1710335354, "2024/3/13 13:9:14",  0,  -57,  1002,  0,  0,  -1,  -11,  -25,  -40
2122334, 1710335354, "2024/3/13 13:9:14",  10,  -64,  1000,  0,  0,  -1,  -9,  -25,  -38
2122534, 1710335354, "2024/3/13 13:9:14",  6,  -55,  1002,  0,  0,  0,  -10,  -27,  -39
2122734, 1710335355, "2024/3/13 13:9:15",  13,  -61,  1002,  0,  0,  0,  -8,  -27,  -37
2122934, 1710335355, "2024/3/13 13:9:15",  3,  -61,  1003,  0,  0,  -1,  -9,  -26,  -38
2123134, 1710335355, "2024/3/13 13:9:15",  6,  -60,  1002,  0,  -1,  -1,  -11,  -25,  -37
2123334, 1710335355, "2024/3/13 13:9:15",  5,  -59,  1001,  0,  0,  -1,  -9,  -24,  -40
2123534, 1710335355, "2024/3/13 13:9:15",  3,  -55,  1005,  0,  0,  0,  -11,  -26,  -38
2123734, 1710335356, "2024/3/13 13:9:16",  10,  -49,  1003,  0,  0,  -1,  -9,  -27,  -38
2123934, 1710335356, "2024/3/13 13:9:16",  2,  -56,  1000,  0,  0,  -1,  -9,  -26,  -39
2124134, 1710335356, "2024/3/13 13:9:16",  3,  -60,  1008,  0,  0,  -1,  -9,  -27,  -40
2124334, 1710335356, "2024/3/13 13:9:16",  -2,  -56,  1004,  0,  0,  -1,  -9,  -25,  -39
2124534, 1710335356, "2024/3/13 13:9:16",  0,  -61,  996,  0,  0,  -1,  -8,  -26,  -39
2124734, 1710335357, "2024/3/13 13:9:17",  2,  -57,  1000,  0,  0,  0,  -10,  -27,  -40
2124934, 1710335357, "2024/3/13 13:9:17",  3,  -58,  1002,  0,  0,  -1,  -10,  -27,  -39
2125134, 1710335357, "2024/3/13 13:9:17",  5,  -55,  1002,  0,  0,  -1,  -9,  -26,  -41
2125334, 1710335357, "2024/3/13 13:9:17",  6,  -58,  1003,  0,  0,  -1,  -9,  -27,  -38
2125534, 1710335357, "2024/3/13 13:9:17",  8,  -57,  1006,  0,  0,  0,  -10,  -26,  -39
2125734, 1710335358, "2024/3/13 13:9:18",  2,  -61,  1003,  0,  0,  -1,  -10,  -26,  -37
2125934, 1710335358, "2024/3/13 13:9:18",  5,  -57,  1001,  0,  0,  0,  -9,  -27,  -39
2126134, 1710335358, "2024/3/13 13:9:18",  2,  -59,  1009,  0,  0,  -1,  -9,  -26,  -38
2126334, 1710335358, "2024/3/13 13:9:18",  4,  -58,  1006,  0,  -1,  -1,  -8,  -25,  -39
2126534, 1710335358, "2024/3/13 13:9:18",  2,  -61,  1005,  0,  0,  -1,  -9,  -25,  -37
2126734, 1710335359, "2024/3/13 13:9:19",  3,  -57,  1002,  0,  0,  -1,  -11,  -25,  -38
2126934, 1710335359, "2024/3/13 13:9:19",  2,  -55,  1004,  0,  0,  -1,  -11,  -26,  -39
2127134, 1710335359, "2024/3/13 13:9:19",  3,  -52,  1007,  0,  0,  -1,  -9,  -26,  -39
2127334, 1710335359, "2024/3/13 13:9:19",  5,  -59,  1003,  0,  0,  0,  -9,  -26,  -39
2127534, 1710335359, "2024/3/13 13:9:19",  4,  -52,  1005,  0,  0,  -1,  -10,  -26,  -38
2127734, 1710335360, "2024/3/13 13:9:20",  7,  -57,  1001,  0,  0,  -1,  -9,  -26,  -39
2127934, 1710335360, "2024/3/13 13:9:20",  1,  -56,  1001,  0,  0,  -1,  -11,  -25,  -40
2128134, 1710335360, "2024/3/13 13:9:20",  0,  -57,  1003,  0,  0,  -1,  -9,  -26,  -40
2128334, 1710335360, "2024/3/13 13:9:20",  6,  -55,  1005,  0,  0,  0,  -11,  -26,  -39
2128534, 1710335360, "2024/3/13 13:9:20",  2,  -60,  1008,  0,  0,  0,  -9,  -25,  -39
2128734, 1710335361, "2024/3/13 13:9:21",  6,  -55,  1004,  0,  0,  0,  -11,  -27,  -38
2128934, 1710335361, "2024/3/13 13:9:21",  5,  -57,  1000,  0,  -1,  -1,  -10,  -26,  -40
2129134, 1710335361, "2024/3/13 13:9:21",  3,  -58,  1000,  0,  0,  -1,  -9,  -27,  -39
2129334, 1710335361, "2024/3/13 13:9:21",  3,  -59,  1003,  0,  0,  -1,  -10,  -26,  -39
2129534, 1710335361, "2024/3/13 13:9:21",  9,  -60,  1002,  0,  0,  0,  -9,  -23,  -37
2129734, 1710335362, "2024/3/13 13:9:22",  2,  -65,  1000,  0,  0,  -1,  -10,  -26,  -39
2129934, 1710335362, "2024/3/13 13:9:22",  4,  -61,  1001,  0,  0,  -1,  -7,  -27,  -39
2130134, 1710335362, "2024/3/13 13:9:22",  4,  -54,  1003,  0,  0,  -1,  -9,  -25,  -39
2130334, 1710335362, "2024/3/13 13:9:22",  6,  -54,  1004,  0,  0,  0,  -11,  -27,  -39
2130534, 1710335362, "2024/3/13 13:9:22",  3,  -57,  1000,  0,  0,  -1,  -10,  -24,  -39
2130734, 1710335363, "2024/3/13 13:9:23",  1,  -64,  1007,  0,  0,  -1,  -9,  -25,  -39
2130934, 1710335363, "2024/3/13 13:9:23",  4,  -63,  1005,  0,  0,  -1,  -10,  -26,  -39
2131134, 1710335363, "2024/3/13 13:9:23",  3,  -57,  1003,  0,  -1,  -1,  -8,  -25,  -40
2131334, 1710335363, "2024/3/13 13:9:23",  5,  -62,  1002,  0,  -1,  -1,  -10,  -25,  -39
2131534, 1710335363, "2024/3/13 13:9:23",  9,  -62,  1000,  0,  0,  0,  -11,  -27,  -38
2131734, 1710335364, "2024/3/13 13:9:24",  3,  -58,  1004,  0,  0,  -1,  -10,  -27,  -39
2131934, 1710335364, "2024/3/13 13:9:24",  4,  -54,  1002,  0,  0,  -1,  -9,  -26,  -38
2132134, 1710335364, "2024/3/13 13:9:24",  2,  -60,  1003,  0,  0,  -1,  -8,  -24,  -38
2132334, 1710335364, "2024/3/13 13:9:24",  11,  -56,  1005,  0,  0,  0,  -10,  -26,  -39
2132534, 1710335364, "2024/3/13 13:9:24",  5,  -56,  1006,  0,  0,  -1,  -9,  -26,  -39
2132734, 1710335365, "2024/3/13 13:9:25",  8,  -52,  1003,  0,  0,  -1,  -11,  -26,  -39
2132934, 1710335365, "2024/3/13 13:9:25",  3,  -57,  1003,  0,  -1,  -1,  -9,  -26,  -39
2133134, 1710335365, "2024/3/13 13:9:25",  3,  -63,  1002,  0,  0,  0,  -11,  -27,  -38
2133334, 1710335365, "2024/3/13 13:9:25",  6,  -61,  1004,  0,  0,  -1,  -10,  -25,  -38
2133534, 1710335365, "2024/3/13 13:9:25",  7,  -57,  1003,  0,  0,  0,  -9,  -25,  -39
2133734, 1710335366, "2024/3/13 13:9:26",  1,  -54,  1003,  0,  0,  0,  -11,  -26,  -38
2133934, 1710335366, "2024/3/13 13:9:26",  7,  -60,  1003,  0,  0,  0,  -9,  -26,  -38
2134134, 1710335366, "2024/3/13 13:9:26",  7,  -58,  1004,  0,  0,  -1,  -10,  -26,  -40
2134334, 1710335366, "2024/3/13 13:9:26",  4,  -61,  1005,  0,  -1,  -1,  -9,  -25,  -38
2134534, 1710335366, "2024/3/13 13:9:26",  3,  -61,  1003,  0,  -1,  0,  -9,  -25,  -39
2134734, 1710335367, "2024/3/13 13:9:27",  5,  -59,  1005,  0,  -1,  -1,  -9,  -25,  -39
2134934, 1710335367, "2024/3/13 13:9:27",  7,  -60,  1004,  0,  0,  -1,  -12,  -26,  -39
2135134, 1710335367, "2024/3/13 13:9:27",  2,  -58,  1003,  0,  0,  0,  -10,  -26,  -37
2135334, 1710335367, "2024/3/13 13:9:27",  7,  -62,  1004,  0,  0,  -1,  -10,  -25,  -39
2135534, 1710335367, "2024/3/13 13:9:27",  5,  -63,  1005,  0,  0,  -1,  -9,  -25,  -40
2135734, 1710335368, "2024/3/13 13:9:28",  7,  -49,  1007,  0,  0,  -1,  -11,  -26,  -38
2135934, 1710335368, "2024/3/13 13:9:28",  2,  -54,  1000,  0,  0,  0,  -9,  -27,  -39
2136134, 1710335368, "2024/3/13 13:9:28",  7,  -58,  1003,  0,  0,  -1,  -10,  -24,  -38
2136334, 1710335368, "2024/3/13 13:9:28",  4,  -62,  1002,  0,  0,  0,  -9,  -24,  -39
2136534, 1710335368, "2024/3/13 13:9:28",  6,  -57,  1006,  0,  0,  -1,  -11,  -26,  -39
2136734, 1710335369, "2024/3/13 13:9:29",  4,  -56,  1002,  0,  0,  -1,  -9,  -25,  -38
2136934, 1710335369, "2024/3/13 13:9:29",  3,  -58,  1004,  0,  0,  -1,  -9,  -26,  -39
2137134, 1710335369, "2024/3/13 13:9:29",  6,  -62,  1002,  0,  0,  -1,  -9,  -26,  -38
2137334, 1710335369, "2024/3/13 13:9:29",  6,  -60,  1004,  0,  0,  -1,  -9,  -26,  -39
2137534, 1710335369, "2024/3/13 13:9:29",  4,  -61,  1005,  0,  0,  -1,  -9,  -25,  -39
2137734, 1710335370, "2024/3/13 13:9:30",  3,  -60,  1003,  0,  0,  0,  -9,  -26,  -38
2137934, 1710335370, "2024/3/13 13:9:30",  2,  -61,  1002,  0,  0,  0,  -11,  -27,  -40
2138134, 1710335370, "2024/3/13 13:9:30",  2,  -63,  1003,  0,  -1,  0,  -9,  -27,  -38
2138334, 1710335370, "2024/3/13 13:9:30",  6,  -56,  1003,  0,  0,  -1,  -11,  -25,  -38
2138534, 1710335370, "2024/3/13 13:9:30",  4,  -59,  998,  0,  -1,  -1,  -10,  -26,  -38
2138734, 1710335371, "2024/3/13 13:9:31",  6,  -60,  1003,  0,  0,  0,  -9,  -26,  -38
2138934, 1710335371, "2024/3/13 13:9:31",  8,  -57,  1006,  0,  0,  0,  -8,  -25,  -37
2139134, 1710335371, "2024/3/13 13:9:31",  9,  -62,  1004,  0,  0,  0,  -10,  -25,  -38
2139334, 1710335371, "2024/3/13 13:9:31",  7,  -62,  1001,  0,  -1,  -1,  -11,  -26,  -40
2139534, 1710335371, "2024/3/13 13:9:31",  3,  -61,  1004,  0,  0,  -1,  -9,  -25,  -39
2139734, 1710335372, "2024/3/13 13:9:32",  4,  -62,  1002,  0,  0,  -1,  -9,  -27,  -39
2139934, 1710335372, "2024/3/13 13:9:32",  4,  -57,  1004,  0,  0,  -1,  -10,  -27,  -38
2140134, 1710335372, "2024/3/13 13:9:32",  6,  -58,  1001,  0,  0,  0,  -8,  -26,  -38
2140334, 1710335372, "2024/3/13 13:9:32",  3,  -59,  1000,  0,  0,  -1,  -9,  -26,  -39
2140534, 1710335372, "2024/3/13 13:9:32",  5,  -58,  1003,  0,  0,  0,  -11,  -26,  -38
2140734, 1710335373, "2024/3/13 13:9:33",  6,  -55,  1008,  0,  -1,  -1,  -10,  -25,  -39
2140934, 1710335373, "2024/3/13 13:9:33",  3,  -58,  1001,  0,  0,  -1,  -10,  -27,  -36
2141134, 1710335373, "2024/3/13 13:9:33",  7,  -57,  1004,  0,  0,  0,  -10,  -25,  -39
2141334, 1710335373, "2024/3/13 13:9:33",  7,  -58,  1004,  0,  0,  -1,  -9,  -27,  -39
2141534, 1710335373, "2024/3/13 13:9:33",  2,  -56,  1006,  0,  0,  -1,  -10,  -24,  -38
2141734, 1710335374, "2024/3/13 13:9:34",  7,  -60,  1003,  0,  0,  0,  -9,  -25,  -38
2141934, 1710335374, "2024/3/13 13:9:34",  5,  -58,  1001,  0,  0,  -1,  -10,  -26,  -38
2142134, 1710335374, "2024/3/13 13:9:34",  1,  -59,  1004,  0,  0,  -1,  -9,  -25,  -39
2142334, 1710335374, "2024/3/13 13:9:34",  6,  -57,  1002,  0,  0,  -1,  -11,  -25,  -38
2142534, 1710335374, "2024/3/13 13:9:34",  6,  -60,  1008,  0,  0,  -1,  -10,  -26,  -39
2142734, 1710335375, "2024/3/13 13:9:35",  3,  -56,  1004,  0,  0,  0,  -10,  -26,  -38
2142934, 1710335375, "2024/3/13 13:9:35",  8,  -53,  1003,  0,  0,  -1,  -10,  -26,  -38
2143134, 1710335375, "2024/3/13 13:9:35",  3,  -53,  1002,  0,  0,  0,  -9,  -25,  -39
2143334, 1710335375, "2024/3/13 13:9:35",  8,  -52,  1004,  0,  0,  -1,  -11,  -25,  -38
2143534, 1710335375, "2024/3/13 13:9:35",  8,  -54,  1001,  0,  0,  -1,  -10,  -26,  -39
2143734, 1710335376, "2024/3/13 13:9:36",  5,  -55,  1006,  0,  0,  -1,  -9,  -25,  -38
2143934, 1710335376, "2024/3/13 13:9:36",  5,  -60,  1008,  0,  0,  -1,  -10,  -27,  -37
2144134, 1710335376, "2024/3/13 13:9:36",  6,  -59,  1004,  0,  0,  -1,  -9,  -25,  -39
2144334, 1710335376, "2024/3/13 13:9:36",  3,  -56,  1010,  0,  0,  -1,  -8,  -26,  -38
2144534, 1710335376, "2024/3/13 13:9:36",  4,  -63,  1005,  0,  0,  -1,  -8,  -26,  -39
2144734, 1710335377, "2024/3/13 13:9:37",  3,  -59,  1004,  0,  0,  -1,  -8,  -26,  -38
2144934, 1710335377, "2024/3/13 13:9:37",  6,  -59,  1006,  0,  0,  -1,  -8,  -27,  -39
2145134, 1710335377, "2024/3/13 13:9:37",  3,  -57,  1006,  0,  -1,  -1,  -9,  -24,  -38
2145334, 1710335377, "2024/3/13 13:9:37",  2,  -58,  1003,  0,  0,  -1,  -9,  -26,  -39
2145534, 1710335377, "2024/3/13 13:9:37",  3,  -59,  1007,  0,  0,  -1,  -9,  -25,  -40
2145734, 1710335378, "2024/3/13 13:9:38",  7,  -53,  1004,  0,  0,  -1,  -10,  -25,  -41
2145934, 1710335378, "2024/3/13 13:9:38",  5,  -62,  1005,  0,  -1,  -1,  -10,  -25,  -39
2146134, 1710335378, "2024/3/13 13:9:38",  8,  -54,  1004,  0,  0,  0,  -9,  -27,  -38
2146334, 1710335378, "2024/3/13 13:9:38",  5,  -58,  1005,  0,  0,  -1,  -9,  -27,  -39
2146534, 1710335378, "2024/3/13 13:9:38",  6,  -56,  1004,  0,  0,  0,  -9,  -24,  -39
2146734, 1710335379, "2024/3/13 13:9:39",  2,  -62,  1004,  0,  0,  0,  -9,  -26,  -40
2146934, 1710335379, "2024/3/13 13:9:39",  4,  -59,  999,  0,  -1,  -1,  -10,  -26,  -40
2147134, 1710335379, "2024/3/13 13:9:39",  7,  -60,  1000,  0,  0,  0,  -9,  -27,  -38
2147334, 1710335379, "2024/3/13 13:9:39",  10,  -57,  1001,  0,  0,  0,  -10,  -25,  -37
2147534, 1710335379, "2024/3/13 13:9:39",  6,  -57,  1008,  0,  0,  0,  -10,  -25,  -37
2147734, 1710335380, "2024/3/13 13:9:40",  4,  -57,  1005,  0,  0,  -1,  -10,  -25,  -38
2147934, 1710335380, "2024/3/13 13:9:40",  6,  -64,  1002,  0,  0,  -1,  -10,  -24,  -40
2148134, 1710335380, "2024/3/13 13:9:40",  8,  -55,  1002,  0,  0,  -1,  -9,  -26,  -38
2148334, 1710335380, "2024/3/13 13:9:40",  3,  -48,  1003,  0,  0,  -1,  -11,  -27,  -38
2148534, 1710335380, "2024/3/13 13:9:40",  2,  -55,  1002,  0,  0,  -1,  -10,  -25,  -39
2148734, 1710335381, "2024/3/13 13:9:41",  3,  -59,  1006,  0,  -1,  -1,  -9,  -25,  -39
2148934, 1710335381, "2024/3/13 13:9:41",  5,  -58,  1004,  0,  0,  -1,  -9,  -26,  -38
2149134, 1710335381, "2024/3/13 13:9:41",  5,  -59,  1002,  0,  0,  -1,  -10,  -27,  -39
2149334, 1710335381, "2024/3/13 13:9:41",  3,  -54,  1009,  0,  0,  0,  -10,  -25,  -38
2149534, 1710335381, "2024/3/13 13:9:41",  4,  -53,  1001,  0,  0,  -1,  -9,  -26,  -39
2149734, 1710335382, "2024/3/13 13:9:42",  5,  -55,  1006,  0,  0,  -1,  -9,  -25,  -38
2149934, 1710335382, "2024/3/13 13:9:42",  7,  -58,  1006,  0,  0,  0,  -11,  -25,  -39
2150134, 1710335382, "2024/3/13 13:9:42",  6,  -61,  1000,  0,  0,  -1,  -10,  -26,  -39
2150334, 1710335382, "2024/3/13 13:9:42",  2,  -61,  998,  0,  0,  0,  -10,  -25,  -39
2150534, 1710335382, "2024/3/13 13:9:42",  8,  -56,  1005,  0,  0,  0,  -10,  -25,  -38
2150734, 1710335383, "2024/3/13 13:9:43",  7,  -55,  1003,  0,  0,  0,  -9,  -27,  -39
2150934, 1710335383, "2024/3/13 13:9:43",  4,  -52,  1002,  0,  0,  0,  -10,  -26,  -38
2151134, 1710335383, "2024/3/13 13:9:43",  6,  -55,  1003,  0,  0,  0,  -9,  -26,  -38
2151334, 1710335383, "2024/3/13 13:9:43",  6,  -54,  1001,  0,  -1,  -1,  -10,  -27,  -39
2151534, 1710335383, "2024/3/13 13:9:43",  2,  -60,  1005,  0,  0,  0,  -9,  -27,  -39
2151734, 1710335384, "2024/3/13 13:9:44",  3,  -64,  1005,  0,  -1,  -1,  -8,  -26,  -39
2151934, 1710335384, "2024/3/13 13:9:44",  5,  -59,  1005,  0,  -1,  -1,  -9,  -27,  -38
2152134, 1710335384, "2024/3/13 13:9:44",  5,  -60,  1005,  0,  0,  0,  -11,  -25,  -40
2152334, 1710335384, "2024/3/13 13:9:44",  5,  -59,  1006,  0,  0,  -1,  -10,  -26,  -37
2152534, 1710335384, "2024/3/13 13:9:44",  1,  -58,  1004,  0,  -1,  -1,  -9,  -25,  -38
2152734, 1710335385, "2024/3/13 13:9:45",  2,  -59,  1004,  0,  0,  -1,  -9,  -26,  -37
2152934, 1710335385, "2024/3/13 13:9:45",  3,  -52,  1003,  0,  -1,  -1,  -10,  -25,  -39
2153134, 1710335385, "2024/3/13 13:9:45",  3,  -56,  1004,  0,  0,  -1,  -9,  -26,  -38
2153334, 1710335385, "2024/3/13 13:9:45",  3,  -59,  1005,  0,  0,  -1,  -9,  -26,  -38
2153534, 1710335385, "2024/3/13 13:9:45",  4,  -57,  1004,  0,  0,  -1,  -9,  -27,  -38
2153734, 1710335386, "2024/3/13 13:9:46",  4,  -65,  1004,  0,  0,  0,  -10,  -26,  -39
2153934, 1710335386, "2024/3/13 13:9:46",  5,  -53,  1003,  0,  0,  0,  -9,  -26,  -38
2154134, 1710335386, "2024/3/13 13:9:46",  3,  -57,  1000,  0,  0,  -1,  -7,  -25,  -38
2154334, 1710335386, "2024/3/13 13:9:46",  4,  -61,  1003,  0,  0,  -1,  -8,  -26,  -39
2154534, 1710335386, "2024/3/13 13:9:46",  6,  -60,  1002,  0,  0,  -1,  -10,  -27,  -39
2154734, 1710335387, "2024/3/13 13:9:47",  4,  -59,  999,  0,  0,  -1,  -9,  -25,  -38
2154934, 1710335387, "2024/3/13 13:9:47",  6,  -56,  1002,  0,  0,  -1,  -9,  -26,  -38
2155134, 1710335387, "2024/3/13 13:9:47",  5,  -60,  1004,  0,  0,  0,  -8,  -27,  -39
2155334, 1710335387, "2024/3/13 13:9:47",  5,  -59,  1003,  0,  -1,  0,  -8,  -27,  -37
2155534, 1710335387, "2024/3/13 13:9:47",  4,  -54,  1005,  0,  0,  -1,  -9,  -26,  -40
2155734, 1710335388, "2024/3/13 13:9:48",  5,  -55,  1001,  0,  0,  0,  -10,  -25,  -38
2155934, 1710335388, "2024/3/13 13:9:48",  5,  -58,  1001,  0,  0,  -1,  -9,  -25,  -38
2156134, 1710335388, "2024/3/13 13:9:48",  9,  -59,  1006,  0,  0,  0,  -10,  -24,  -39
2156334, 1710335388, "2024/3/13 13:9:48",  9,  -57,  1003,  0,  -1,  -1,  -9,  -25,  -39
2156534, 1710335388, "2024/3/13 13:9:48",  7,  -59,  1004,  0,  0,  0,  -9,  -28,  -37
2156734, 1710335389, "2024/3/13 13:9:49",  2,  -54,  1004,  0,  0,  0,  -10,  -26,  -38
2156934, 1710335389, "2024/3/13 13:9:49",  3,  -56,  1003,  0,  0,  -1,  -8,  -26,  -40
2157134, 1710335389, "2024/3/13 13:9:49",  5,  -54,  1006,  0,  0,  -1,  -11,  -26,  -39
2157334, 1710335389, "2024/3/13 13:9:49",  4,  -57,  1000,  0,  0,  -1,  -10,  -25,  -39
2157534, 1710335389, "2024/3/13 13:9:49",  4,  -58,  1004,  0,  0,  0,  -11,  -27,  -38
2157734, 1710335390, "2024/3/13 13:9:50",  6,  -54,  1002,  0,  0,  -1,  -10,  -25,  -38
2157934, 1710335390, "2024/3/13 13:9:50",  7,  -59,  1004,  0,  0,  0,  -8,  -25,  -38
2158134, 1710335390, "2024/3/13 13:9:50",  7,  -62,  1000,  0,  -1,  0,  -10,  -27,  -40
2158334, 1710335390, "2024/3/13 13:9:50",  1,  -65,  1001,  0,  -1,  -1,  -9,  -27,  -38
2158534, 1710335390, "2024/3/13 13:9:50",  7,  -58,  1002,  0,  0,  -1,  -10,  -26,  -39
2158734, 1710335391, "2024/3/13 13:9:51",  2,  -63,  999,  0,  0,  -1,  -9,  -26,  -38
2158934, 1710335391, "2024/3/13 13:9:51",  12,  -56,  1007,  0,  0,  -1,  -9,  -25,  -39
2159134, 1710335391, "2024/3/13 13:9:51",  1,  -60,  999,  0,  0,  -1,  -6,  -26,  -39
2159334, 1710335391, "2024/3/13 13:9:51",  5,  -60,  1000,  0,  -1,  0,  -10,  -26,  -38
2159534, 1710335391, "2024/3/13 13:9:51",  9,  -61,  997,  0,  0,  -1,  -8,  -24,  -37
2159734, 1710335392, "2024/3/13 13:9:52",  3,  -57,  1002,  0,  0,  0,  -8,  -25,  -40
2159934, 1710335392, "2024/3/13 13:9:52",  8,  -59,  1004,  0,  0,  -1,  -9,  -25,  -38
2160134, 1710335392, "2024/3/13 13:9:52",  6,  -55,  1007,  0,  0,  -1,  -9,  -26,  -38
2160334, 1710335392, "2024/3/13 13:9:52",  1,  -60,  1004,  0,  0,  -1,  -9,  -26,  -38
2160534, 1710335392, "2024/3/13 13:9:52",  -1,  -57,  1001,  0,  -1,  0,  -9,  -27,  -37
2160734, 1710335393, "2024/3/13 13:9:53",  3,  -54,  1002,  0,  0,  -1,  -11,  -26,  -39
2160934, 1710335393, "2024/3/13 13:9:53",  -2,  -58,  999,  0,  0,  0,  -10,  -26,  -38
2161134, 1710335393, "2024/3/13 13:9:53",  3,  -54,  1002,  0,  0,  -1,  -9,  -26,  -38
2161334, 1710335393, "2024/3/13 13:9:53",  7,  -60,  1003,  0,  -1,  -1,  -7,  -26,  -36
2161534, 1710335393, "2024/3/13 13:9:53",  4,  -61,  1003,  0,  0,  -1,  -10,  -25,  -39
2161734, 1710335394, "2024/3/13 13:9:54",  0,  -51,  1003,  0,  0,  -1,  -10,  -25,  -39
2161934, 1710335394, "2024/3/13 13:9:54",  6,  -62,  1004,  0,  0,  -1,  -9,  -26,  -38
2162134, 1710335394, "2024/3/13 13:9:54",  3,  -56,  1006,  0,  0,  -1,  -9,  -26,  -38
2162334, 1710335394, "2024/3/13 13:9:54",  2,  -58,  1005,  0,  -1,  -1,  -10,  -26,  -39
2162534, 1710335394, "2024/3/13 13:9:54",  8,  -54,  1003,  0,  -1,  0,  -10,  -27,  -38
2162734, 1710335395, "2024/3/13 13:9:55",  5,  -52,  1002,  0,  0,  -1,  -10,  -25,  -38
2162934, 1710335395, "2024/3/13 13:9:55",  3,  -60,  1000,  0,  0,  -1,  -10,  -27,  -38
2163134, 1710335395, "2024/3/13 13:9:55",  7,  -55,  1001,  0,  0,  -1,  -9,  -26,  -38
2163334, 1710335395, "2024/3/13 13:9:55",  3,  -58,  1000,  0,  0,  0,  -9,  -26,  -39
2163534, 1710335395, "2024/3/13 13:9:55",  3,  -57,  1006,  0,  -1,  -1,  -9,  -24,  -38
2163734, 1710335396, "2024/3/13 13:9:56",  5,  -56,  1000,  0,  0,  -1,  -11,  -25,  -37
2163934, 1710335396, "2024/3/13 13:9:56",  4,  -56,  1003,  0,  0,  -1,  -10,  -27,  -38
2164134, 1710335396, "2024/3/13 13:9:56",  4,  -54,  1006,  0,  0,  -1,  -10,  -29,  -38
2164334, 1710335396, "2024/3/13 13:9:56",  5,  -63,  1003,  0,  0,  -1,  -8,  -26,  -38
2164534, 1710335396, "2024/3/13 13:9:56",  3,  -56,  1001,  0,  0,  0,  -9,  -26,  -36
2164734, 1710335397, "2024/3/13 13:9:57",  9,  -58,  1002,  0,  0,  -1,  -10,  -25,  -37
2164934, 1710335397, "2024/3/13 13:9:57",  3,  -58,  1003,  0,  0,  -1,  -9,  -25,  -38
2165134, 1710335397, "2024/3/13 13:9:57",  6,  -62,  1005,  0,  -1,  0,  -9,  -26,  -38
2165334, 1710335397, "2024/3/13 13:9:57",  4,  -57,  1000,  0,  0,  0,  -10,  -25,  -40
2165534, 1710335397, "2024/3/13 13:9:57",  5,  -59,  1004,  0,  0,  -1,  -9,  -24,  -39
2165734, 1710335398, "2024/3/13 13:9:58",  1,  -53,  1003,  0,  0,  -1,  -11,  -26,  -39
2165934, 1710335398, "2024/3/13 13:9:58",  2,  -56,  1002,  0,  0,  -1,  -9,  -27,  -39
2166134, 1710335398, "2024/3/13 13:9:58",  2,  -54,  1003,  0,  0,  -1,  -9,  -27,  -38
2166334, 1710335398, "2024/3/13 13:9:58",  3,  -59,  1001,  0,  0,  -1,  -10,  -25,  -38
2166534, 1710335398, "2024/3/13 13:9:58",  3,  -57,  1004,  0,  0,  0,  -8,  -24,  -38
2166734, 1710335399, "2024/3/13 13:9:59",  1,  -59,  1002,  0,  0,  0,  -9,  -26,  -37
2166934, 1710335399, "2024/3/13 13:9:59",  2,  -53,  1004,  0,  0,  -1,  -9,  -25,  -37
2167134, 1710335399, "2024/3/13 13:9:59",  1,  -61,  1004,  0,  0,  0,  -9,  -27,  -38
2167334, 1710335399, "2024/3/13 13:9:59",  8,  -60,  1005,  0,  -1,  0,  -9,  -26,  -37
2167534, 1710335399, "2024/3/13 13:9:59",  3,  -57,  1001,  0,  0,  -1,  -8,  -25,  -38
2167734, 1710335400, "2024/3/13 13:10:0",  6,  -54,  1000,  0,  0,  -1,  -7,  -26,  -38
2167934, 1710335400, "2024/3/13 13:10:0",  1,  -61,  1004,  0,  -1,  -1,  -11,  -25,  -37
2168134, 1710335400, "2024/3/13 13:10:0",  6,  -60,  1003,  0,  0,  -1,  -9,  -26,  -38
2168334, 1710335400, "2024/3/13 13:10:0",  3,  -61,  1001,  1,  0,  0,  -10,  -25,  -37
2168534, 1710335400, "2024/3/13 13:10:0",  4,  -60,  1004,  0,  -1,  -1,  -8,  -27,  -38
2168734, 1710335401, "2024/3/13 13:10:1",  3,  -62,  1004,  0,  0,  0,  -9,  -26,  -38
2168934, 1710335401, "2024/3/13 13:10:1",  5,  -54,  1003,  0,  0,  0,  -9,  -26,  -37
2169134, 1710335401, "2024/3/13 13:10:1",  6,  -51,  1003,  0,  0,  -1,  -9,  -25,  -40
2169334, 1710335401, "2024/3/13 13:10:1",  3,  -62,  1003,  0,  0,  -1,  -11,  -25,  -39
2169534, 1710335401, "2024/3/13 13:10:1",  4,  -58,  1000,  0,  0,  -1,  -8,  -27,  -37
2169734, 1710335402, "2024/3/13 13:10:2",  5,  -57,  1003,  0,  0,  0,  -9,  -25,  -39
2169934, 1710335402, "2024/3/13 13:10:2",  2,  -57,  1003,  0,  0,  0,  -11,  -27,  -38
2170134, 1710335402, "2024/3/13 13:10:2",  0,  -59,  1003,  0,  0,  -1,  -9,  -26,  -36
2170334, 1710335402, "2024/3/13 13:10:2",  4,  -60,  1002,  0,  0,  -1,  -9,  -28,  -39
2170534, 1710335402, "2024/3/13 13:10:2",  5,  -56,  1001,  0,  0,  -1,  -11,  -27,  -39
2170734, 1710335403, "2024/3/13 13:10:3",  6,  -58,  1001,  0,  0,  -1,  -10,  -25,  -39
2170934, 1710335403, "2024/3/13 13:10:3",  6,  -62,  1005,  0,  0,  0,  -10,  -26,  -37
2171134, 1710335403, "2024/3/13 13:10:3",  6,  -58,  1004,  0,  0,  -1,  -9,  -25,  -38
2171334, 1710335403, "2024/3/13 13:10:3",  4,  -58,  999,  0,  0,  -1,  -9,  -27,  -39
2171534, 1710335403, "2024/3/13 13:10:3",  3,  -60,  1003,  0,  -1,  0,  -10,  -24,  -38
2171734, 1710335404, "2024/3/13 13:10:4",  3,  -56,  1004,  0,  -1,  -1,  -8,  -26,  -38
2171934, 1710335404, "2024/3/13 13:10:4",  5,  -53,  1006,  0,  0,  0,  -11,  -25,  -40
2172134, 1710335404, "2024/3/13 13:10:4",  2,  -61,  1002,  0,  0,  -1,  -9,  -26,  -36
2172334, 1710335404, "2024/3/13 13:10:4",  3,  -63,  1003,  0,  0,  0,  -9,  -27,  -38
2172534, 1710335404, "2024/3/13 13:10:4",  4,  -60,  1000,  0,  0,  -1,  -9,  -25,  -37
2172734, 1710335405, "2024/3/13 13:10:5",  6,  -55,  1004,  0,  -1,  -1,  -9,  -25,  -37
2172934, 1710335405, "2024/3/13 13:10:5",  -1,  -55,  1004,  0,  -1,  -1,  -11,  -26,  -38
2173134, 1710335405, "2024/3/13 13:10:5",  2,  -60,  1002,  0,  0,  -1,  -10,  -26,  -38
2173334, 1710335405, "2024/3/13 13:10:5",  1,  -60,  999,  0,  -1,  0,  -10,  -26,  -38
2173534, 1710335405, "2024/3/13 13:10:5",  3,  -64,  1001,  0,  0,  -1,  -7,  -26,  -37
2173734, 1710335406, "2024/3/13 13:10:6",  0,  -60,  1003,  0,  0,  -1,  -9,  -27,  -38
2173934, 1710335406, "2024/3/13 13:10:6",  2,  -59,  1006,  0,  -1,  0,  -10,  -27,  -39
2174134, 1710335406, "2024/3/13 13:10:6",  4,  -52,  1002,  0,  0,  -1,  -9,  -26,  -38
2174334, 1710335406, "2024/3/13 13:10:6",  0,  -53,  1001,  0,  0,  -1,  -8,  -25,  -37
2174534, 1710335406, "2024/3/13 13:10:6",  7,  -51,  1000,  0,  0,  -1,  -10,  -27,  -38
2174734, 1710335407, "2024/3/13 13:10:7",  6,  -58,  1004,  0,  0,  -1,  -10,  -26,  -39
2174934, 1710335407, "2024/3/13 13:10:7",  4,  -60,  1004,  0,  0,  0,  -9,  -26,  -38
2175134, 1710335407, "2024/3/13 13:10:7",  4,  -58,  1003,  0,  0,  -1,  -10,  -27,  -37
2175334, 1710335407, "2024/3/13 13:10:7",  8,  -59,  1005,  0,  0,  -1,  -9,  -26,  -40
2175534, 1710335407, "2024/3/13 13:10:7",  5,  -59,  1000,  0,  -1,  0,  -10,  -26,  -37
2175734, 1710335408, "2024/3/13 13:10:8",  0,  -59,  1002,  0,  0,  -1,  -10,  -24,  -39
2175934, 1710335408, "2024/3/13 13:10:8",  7,  -54,  1001,  0,  0,  0,  -9,  -27,  -38
2176134, 1710335408, "2024/3/13 13:10:8",  5,  -53,  1003,  0,  0,  -1,  -10,  -26,  -39
2176334, 1710335408, "2024/3/13 13:10:8",  6,  -54,  1002,  0,  0,  -1,  -10,  -26,  -38
2176534, 1710335408, "2024/3/13 13:10:8",  7,  -51,  1005,  0,  -1,  0,  -10,  -27,  -40
2176734, 1710335409, "2024/3/13 13:10:9",  7,  -57,  1003,  0,  0,  -1,  -9,  -25,  -38
2176934, 1710335409, "2024/3/13 13:10:9",  5,  -56,  1004,  0,  -1,  -1,  -8,  -27,  -39
2177134, 1710335409, "2024/3/13 13:10:9",  5,  -54,  1000,  0,  0,  -1,  -10,  -26,  -37
2177334, 1710335409, "2024/3/13 13:10:9",  7,  -56,  1003,  0,  0,  -1,  -9,  -27,  -37
2177534, 1710335409, "2024/3/13 13:10:9",  6,  -58,  1004,  0,  0,  -1,  -10,  -26,  -39
2177734, 1710335410, "2024/3/13 13:10:10",  7,  -57,  1004,  0,  0,  -1,  -10,  -27,  -38
2177934, 1710335410, "2024/3/13 13:10:10",  7,  -57,  1005,  0,  0,  0,  -10,  -26,  -38
2178134, 1710335410, "2024/3/13 13:10:10",  5,  -56,  1001,  0,  -1,  -1,  -10,  -27,  -38
2178334, 1710335410, "2024/3/13 13:10:10",  5,  -56,  1002,  0,  0,  -1,  -10,  -26,  -37
2178534, 1710335410, "2024/3/13 13:10:10",  9,  -56,  1007,  0,  0,  -1,  -9,  -25,  -38
2178734, 1710335411, "2024/3/13 13:10:11",  5,  -58,  1005,  0,  0,  0,  -10,  -26,  -37
2178934, 1710335411, "2024/3/13 13:10:11",  5,  -55,  1004,  0,  0,  0,  -10,  -26,  -37
2179134, 1710335411, "2024/3/13 13:10:11",  4,  -61,  1001,  0,  0,  0,  -9,  -26,  -38
2179334, 1710335411, "2024/3/13 13:10:11",  6,  -57,  1002,  0,  0,  -1,  -9,  -26,  -37
2179534, 1710335411, "2024/3/13 13:10:11",  7,  -53,  1006,  0,  0,  -1,  -10,  -26,  -37
2179734, 1710335412, "2024/3/13 13:10:12",  9,  -55,  1004,  0,  0,  -1,  -10,  -27,  -38
2179934, 1710335412, "2024/3/13 13:10:12",  7,  -54,  1002,  0,  0,  -1,  -9,  -26,  -37
2180134, 1710335412, "2024/3/13 13:10:12",  3,  -58,  1003,  0,  0,  -1,  -8,  -27,  -37
2180334, 1710335412, "2024/3/13 13:10:12",  7,  -60,  1001,  0,  -1,  -1,  -8,  -26,  -37
2180534, 1710335412, "2024/3/13 13:10:12",  7,  -60,  1003,  0,  0,  0,  -10,  -27,  -38
2180734, 1710335413, "2024/3/13 13:10:13",  3,  -64,  1004,  0,  0,  -1,  -8,  -27,  -38
2180934, 1710335413, "2024/3/13 13:10:13",  -1,  -60,  1004,  0,  -1,  -1,  -9,  -27,  -37
2181134, 1710335413, "2024/3/13 13:10:13",  3,  -59,  1002,  0,  0,  -1,  -10,  -26,  -39
2181334, 1710335413, "2024/3/13 13:10:13",  4,  -59,  1003,  0,  0,  -1,  -10,  -25,  -38
2181534, 1710335413, "2024/3/13 13:10:13",  9,  -56,  1003,  0,  0,  -1,  -9,  -25,  -38
2181734, 1710335414, "2024/3/13 13:10:14",  3,  -53,  1005,  0,  0,  -1,  -8,  -27,  -38
2181934, 1710335414, "2024/3/13 13:10:14",  1,  -56,  1005,  0,  0,  -1,  -9,  -26,  -39
2182134, 1710335414, "2024/3/13 13:10:14",  5,  -59,  1002,  0,  0,  -1,  -10,  -27,  -39
2182334, 1710335414, "2024/3/13 13:10:14",  2,  -61,  1003,  0,  0,  0,  -11,  -27,  -38
2182534, 1710335414, "2024/3/13 13:10:14",  7,  -61,  1000,  0,  0,  -1,  -11,  -25,  -39
2182734, 1710335415, "2024/3/13 13:10:15",  3,  -55,  1003,  0,  0,  -1,  -10,  -27,  -38
2182934, 1710335415, "2024/3/13 13:10:15",  4,  -64,  1004,  0,  0,  0,  -10,  -27,  -37
2183134, 1710335415, "2024/3/13 13:10:15",  4,  -55,  1003,  0,  0,  0,  -10,  -27,  -37
2183334, 1710335415, "2024/3/13 13:10:15",  6,  -61,  1004,  0,  0,  -1,  -9,  -26,  -38
2183534, 1710335415, "2024/3/13 13:10:15",  5,  -53,  1002,  0,  0,  0,  -9,  -28,  -37
2183734, 1710335416, "2024/3/13 13:10:16",  8,  -58,  1001,  0,  0,  0,  -9,  -25,  -38
2183934, 1710335416, "2024/3/13 13:10:16",  7,  -55,  1006,  0,  0,  -1,  -10,  -27,  -39
2184134, 1710335416, "2024/3/13 13:10:16",  3,  -59,  1005,  0,  0,  -1,  -9,  -27,  -38
2184334, 1710335416, "2024/3/13 13:10:16",  7,  -60,  1003,  0,  0,  0,  -11,  -27,  -38
2184534, 1710335416, "2024/3/13 13:10:16",  3,  -57,  1002,  0,  0,  -1,  -8,  -25,  -37
2184734, 1710335417, "2024/3/13 13:10:17",  0,  -58,  1004,  0,  -1,  0,  -9,  -27,  -38
2184934, 1710335417, "2024/3/13 13:10:17",  1,  -62,  1002,  0,  -1,  0,  -9,  -27,  -37
2185134, 1710335417, "2024/3/13 13:10:17",  3,  -57,  1003,  0,  0,  -1,  -10,  -27,  -37
2185334, 1710335417, "2024/3/13 13:10:17",  6,  -55,  1002,  0,  0,  -1,  -9,  -27,  -37
2185534, 1710335417, "2024/3/13 13:10:17",  -3,  -59,  1006,  0,  0,  -1,  -10,  -26,  -39
2185734, 1710335418, "2024/3/13 13:10:18",  8,  -58,  1004,  0,  0,  -1,  -9,  -25,  -37
2185934, 1710335418, "2024/3/13 13:10:18",  2,  -59,  1004,  0,  -1,  -1,  -10,  -27,  -38
2186134, 1710335418, "2024/3/13 13:10:18",  4,  -58,  1002,  0,  -1,  -1,  -9,  -27,  -38
2186334, 1710335418, "2024/3/13 13:10:18",  3,  -61,  1006,  0,  0,  0,  -9,  -27,  -37
2186534, 1710335418, "2024/3/13 13:10:18",  1,  -62,  1002,  0,  0,  -1,  -9,  -28,  -37
2186734, 1710335419, "2024/3/13 13:10:19",  3,  -57,  1002,  0,  0,  0,  -9,  -26,  -38
2186934, 1710335419, "2024/3/13 13:10:19",  1,  -60,  1003,  0,  0,  0,  -9,  -25,  -39
2187134, 1710335419, "2024/3/13 13:10:19",  5,  -59,  1003,  0,  0,  -1,  -9,  -26,  -39
2187334, 1710335419, "2024/3/13 13:10:19",  4,  -58,  999,  0,  0,  0,  -9,  -28,  -38
2187534, 1710335419, "2024/3/13 13:10:19",  5,  -56,  1005,  0,  0,  -1,  -9,  -26,  -37
2187734, 1710335420, "2024/3/13 13:10:20",  5,  -57,  1002,  0,  0,  -1,  -9,  -24,  -38
2187934, 1710335420, "2024/3/13 13:10:20",  1,  -65,  1004,  0,  0,  -1,  -10,  -25,  -37
2188134, 1710335420, "2024/3/13 13:10:20",  7,  -61,  1005,  0,  0,  -1,  -11,  -25,  -38
2188334, 1710335420, "2024/3/13 13:10:20",  4,  -59,  1007,  0,  0,  -1,  -9,  -27,  -37
2188534, 1710335420, "2024/3/13 13:10:20",  3,  -59,  1001,  0,  0,  -1,  -10,  -26,  -37
2188734, 1710335421, "2024/3/13 13:10:21",  8,  -56,  1002,  0,  0,  0,  -9,  -28,  -36
2188934, 1710335421, "2024/3/13 13:10:21",  6,  -55,  1004,  0,  0,  0,  -10,  -26,  -37
2189134, 1710335421, "2024/3/13 13:10:21",  6,  -54,  1005,  0,  0,  -1,  -9,  -27,  -38
2189334, 1710335421, "2024/3/13 13:10:21",  3,  -60,  1005,  0,  0,  -1,  -9,  -25,  -39
2189534, 1710335421, "2024/3/13 13:10:21",  0,  -57,  1006,  0,  0,  0,  -9,  -26,  -37
2189734, 1710335422, "2024/3/13 13:10:22",  4,  -57,  1003,  0,  -1,  -1,  -10,  -28,  -38
2189934, 1710335422, "2024/3/13 13:10:22",  4,  -53,  1001,  0,  -1,  -1,  -9,  -27,  -38
2190134, 1710335422, "2024/3/13 13:10:22",  2,  -62,  1002,  0,  0,  0,  -11,  -26,  -39
2190334, 1710335422, "2024/3/13 13:10:22",  5,  -56,  1001,  0,  0,  -1,  -11,  -26,  -38
2190534, 1710335422, "2024/3/13 13:10:22",  5,  -57,  1002,  0,  0,  -1,  -9,  -25,  -40
2190734, 1710335423, "2024/3/13 13:10:23",  5,  -59,  1003,  0,  0,  -1,  -9,  -26,  -39
2190934, 1710335423, "2024/3/13 13:10:23",  1,  -62,  1006,  0,  0,  -1,  -10,  -27,  -38
2191134, 1710335423, "2024/3/13 13:10:23",  6,  -56,  1001,  0,  0,  -1,  -9,  -27,  -39
2191334, 1710335423, "2024/3/13 13:10:23",  2,  -57,  1005,  0,  -1,  -1,  -9,  -27,  -39
2191534, 1710335423, "2024/3/13 13:10:23",  6,  -56,  1002,  0,  -1,  -1,  -9,  -26,  -37
2191734, 1710335424, "2024/3/13 13:10:24",  6,  -54,  1005,  0,  0,  -1,  -9,  -27,  -39
2191934, 1710335424, "2024/3/13 13:10:24",  3,  -57,  1003,  0,  0,  0,  -11,  -26,  -39
2192134, 1710335424, "2024/3/13 13:10:24",  4,  -60,  1006,  0,  0,  0,  -9,  -24,  -38
2192334, 1710335424, "2024/3/13 13:10:24",  6,  -58,  1003,  0,  0,  0,  -11,  -26,  -39
2192534, 1710335424, "2024/3/13 13:10:24",  4,  -59,  1003,  0,  0,  -1,  -12,  -26,  -39
2192734, 1710335425, "2024/3/13 13:10:25",  3,  -57,  1002,  0,  -1,  -1,  -11,  -26,  -38
2192934, 1710335425, "2024/3/13 13:10:25",  9,  -61,  1003,  0,  0,  -1,  -10,  -25,  -39
2193134, 1710335425, "2024/3/13 13:10:25",  1,  -60,  1005,  0,  -1,  -1,  -10,  -26,  -37
2193334, 1710335425, "2024/3/13 13:10:25",  4,  -59,  1001,  0,  0,  -1,  -10,  -27,  -38
2193534, 1710335425, "2024/3/13 13:10:25",  4,  -56,  999,  0,  0,  0,  -10,  -28,  -39
2193734, 1710335426, "2024/3/13 13:10:26",  2,  -55,  1004,  0,  0,  -1,  -10,  -26,  -40
2193934, 1710335426, "2024/3/13 13:10:26",  2,  -59,  1004,  0,  0,  0,  -11,  -27,  -38
2194134, 1710335426, "2024/3/13 13:10:26",  4,  -59,  1003,  0,  0,  -1,  -10,  -26,  -39
2194334, 1710335426, "2024/3/13 13:10:26",  3,  -57,  1006,  0,  0,  -1,  -11,  -27,  -37
2194534, 1710335426, "2024/3/13 13:10:26",  0,  -55,  1000,  0,  0,  -1,  -10,  -26,  -38
2194734, 1710335427, "2024/3/13 13:10:27",  1,  -62,  1001,  0,  0,  -1,  -11,  -27,  -39
2194934, 1710335427, "2024/3/13 13:10:27",  7,  -59,  1004,  0,  0,  -1,  -9,  -27,  -38
2195134, 1710335427, "2024/3/13 13:10:27",  6,  -59,  1004,  0,  0,  0,  -8,  -27,  -39
2195334, 1710335427, "2024/3/13 13:10:27",  0,  -59,  1004,  0,  0,  -1,  -9,  -27,  -38
2195534, 1710335427, "2024/3/13 13:10:27",  6,  -56,  1003,  0,  0,  0,  -9,  -27,  -39
2195734, 1710335428, "2024/3/13 13:10:28",  4,  -56,  1003,  0,  0,  -1,  -9,  -24,  -41
2195934, 1710335428, "2024/3/13 13:10:28",  4,  -58,  1001,  0,  0,  0,  -11,  -26,  -38
2196134, 1710335428, "2024/3/13 13:10:28",  4,  -58,  1004,  0,  0,  -1,  -9,  -26,  -39
2196334, 1710335428, "2024/3/13 13:10:28",  3,  -63,  1005,  0,  0,  -1,  -10,  -26,  -39
2196534, 1710335428, "2024/3/13 13:10:28",  6,  -58,  1002,  0,  0,  -1,  -10,  -27,  -39
2196734, 1710335429, "2024/3/13 13:10:29",  2,  -53,  1002,  0,  0,  -1,  -9,  -26,  -40
2196934, 1710335429, "2024/3/13 13:10:29",  -2,  -57,  1003,  0,  0,  0,  -8,  -26,  -39
2197134, 1710335429, "2024/3/13 13:10:29",  5,  -57,  1006,  0,  0,  0,  -9,  -26,  -39
2197334, 1710335429, "2024/3/13 13:10:29",  7,  -57,  1003,  0,  0,  -1,  -10,  -27,  -39
2197534, 1710335429, "2024/3/13 13:10:29",  5,  -58,  1000,  0,  0,  -1,  -10,  -27,  -39
2197734, 1710335430, "2024/3/13 13:10:30",  0,  -61,  1004,  0,  0,  -1,  -11,  -27,  -39
2197934, 1710335430, "2024/3/13 13:10:30",  6,  -52,  1006,  0,  0,  0,  -10,  -26,  -38
2198134, 1710335430, "2024/3/13 13:10:30",  2,  -60,  1004,  0,  0,  -1,  -11,  -26,  -39
2198334, 1710335430, "2024/3/13 13:10:30",  1,  -56,  1004,  0,  -1,  -1,  -10,  -26,  -39
2198534, 1710335430, "2024/3/13 13:10:30",  4,  -57,  1002,  0,  0,  -1,  -10,  -25,  -38
2198734, 1710335431, "2024/3/13 13:10:31",  6,  -55,  1005,  0,  0,  -1,  -9,  -27,  -37
2198934, 1710335431, "2024/3/13 13:10:31",  5,  -55,  1005,  0,  0,  0,  -10,  -26,  -38
2199134, 1710335431, "2024/3/13 13:10:31",  6,  -60,  1004,  0,  0,  0,  -9,  -27,  -37
2199334, 1710335431, "2024/3/13 13:10:31",  5,  -53,  1003,  0,  0,  0,  -8,  -26,  -37
2199534, 1710335431, "2024/3/13 13:10:31",  6,  -55,  1003,  0,  0,  -1,  -9,  -28,  -38
2199734, 1710335432, "2024/3/13 13:10:32",  7,  -56,  1007,  0,  0,  -1,  -9,  -26,  -37
2199934, 1710335432, "2024/3/13 13:10:32",  7,  -54,  1001,  0,  -1,  -1,  -7,  -26,  -36
2200134, 1710335432, "2024/3/13 13:10:32",  0,  -63,  1004,  0,  0,  0,  -9,  -25,  -36
2200334, 1710335432, "2024/3/13 13:10:32",  6,  -60,  1004,  0,  0,  -1,  -9,  -25,  -36
2200534, 1710335432, "2024/3/13 13:10:32",  3,  -59,  1003,  0,  0,  0,  -9,  -26,  -37
2200734, 1710335433, "2024/3/13 13:10:33",  5,  -57,  1004,  0,  0,  0,  -10,  -27,  -35
2200934, 1710335433, "2024/3/13 13:10:33",  8,  -63,  1005,  0,  0,  -1,  -9,  -27,  -37
2201134, 1710335433, "2024/3/13 13:10:33",  5,  -58,  1003,  0,  0,  -1,  -9,  -26,  -35
2201334, 1710335433, "2024/3/13 13:10:33",  6,  -57,  1006,  0,  0,  -1,  -10,  -25,  -37
2201534, 1710335433, "2024/3/13 13:10:33",  1,  -62,  1002,  0,  -1,  -1,  -8,  -26,  -37
2201734, 1710335434, "2024/3/13 13:10:34",  3,  -59,  1004,  0,  0,  -1,  -10,  -27,  -36
2201934, 1710335434, "2024/3/13 13:10:34",  5,  -60,  1002,  0,  -1,  -1,  -9,  -25,  -37
2202134, 1710335434, "2024/3/13 13:10:34",  5,  -61,  1007,  0,  -1,  -1,  -9,  -27,  -37
2202334, 1710335434, "2024/3/13 13:10:34",  5,  -60,  1004,  0,  0,  -1,  -8,  -26,  -36
2202534, 1710335434, "2024/3/13 13:10:34",  3,  -58,  1004,  0,  0,  -1,  -9,  -27,  -36
2202734, 1710335435, "2024/3/13 13:10:35",  4,  -61,  1004,  0,  0,  -1,  -9,  -27,  -36
2202934, 1710335435, "2024/3/13 13:10:35",  2,  -60,  1001,  0,  0,  -1,  -8,  -26,  -35
2203134, 1710335435, "2024/3/13 13:10:35",  3,  -58,  1006,  0,  0,  0,  -9,  -28,  -37
2203334, 1710335435, "2024/3/13 13:10:35",  5,  -59,  1003,  0,  0,  0,  -10,  -26,  -36
2203534, 1710335435, "2024/3/13 13:10:35",  6,  -63,  1002,  0,  0,  0,  -9,  -26,  -37
2203734, 1710335436, "2024/3/13 13:10:36",  2,  -59,  1004,  0,  0,  -1,  -9,  -25,  -37
2203934, 1710335436, "2024/3/13 13:10:36",  2,  -56,  1004,  1,  0,  0,  -9,  -27,  -36
2204134, 1710335436, "2024/3/13 13:10:36",  6,  -62,  1007,  0,  0,  -1,  -10,  -26,  -37
2204334, 1710335436, "2024/3/13 13:10:36",  0,  -52,  1003,  0,  0,  -1,  -9,  -27,  -37
2204534, 1710335436, "2024/3/13 13:10:36",  5,  -55,  1003,  0,  0,  0,  -11,  -26,  -37
2204734, 1710335437, "2024/3/13 13:10:37",  6,  -55,  1000,  0,  0,  -1,  -8,  -27,  -38
2204934, 1710335437, "2024/3/13 13:10:37",  0,  -57,  1005,  0,  0,  -1,  -9,  -26,  -36
2205134, 1710335437, "2024/3/13 13:10:37",  3,  -54,  1000,  0,  0,  0,  -10,  -27,  -36
2205334, 1710335437, "2024/3/13 13:10:37",  6,  -56,  1003,  0,  0,  0,  -8,  -26,  -36
2205534, 1710335437, "2024/3/13 13:10:37",  7,  -55,  1005,  0,  0,  0,  -8,  -25,  -37
2205734, 1710335438, "2024/3/13 13:10:38",  4,  -60,  999,  0,  0,  0,  -9,  -28,  -36
2205934, 1710335438, "2024/3/13 13:10:38",  4,  -62,  1003,  0,  0,  0,  -9,  -26,  -36
2206134, 1710335438, "2024/3/13 13:10:38",  5,  -56,  1000,  0,  0,  -1,  -9,  -26,  -35
2206334, 1710335438, "2024/3/13 13:10:38",  6,  -56,  1004,  0,  -1,  -1,  -10,  -26,  -36
2206534, 1710335438, "2024/3/13 13:10:38",  7,  -58,  1005,  0,  0,  -1,  -11,  -29,  -36
2206734, 1710335439, "2024/3/13 13:10:39",  0,  -64,  1003,  0,  -1,  -1,  -8,  -24,  -37
2206934, 1710335439, "2024/3/13 13:10:39",  6,  -57,  1000,  0,  0,  0,  -9,  -26,  -34
2207134, 1710335439, "2024/3/13 13:10:39",  0,  -61,  1004,  0,  0,  0,  -9,  -26,  -37
2207334, 1710335439, "2024/3/13 13:10:39",  5,  -54,  1001,  0,  0,  0,  -11,  -27,  -37
2207534, 1710335439, "2024/3/13 13:10:39",  0,  -56,  1001,  0,  -1,  -1,  -8,  -27,  -37
2207734, 1710335440, "2024/3/13 13:10:40",  6,  -54,  1003,  0,  -1,  -1,  -10,  -25,  -37
2207934, 1710335440, "2024/3/13 13:10:40",  5,  -61,  1004,  0,  0,  -1,  -11,  -27,  -37
2208134, 1710335440, "2024/3/13 13:10:40",  0,  -61,  1004,  0,  0,  -1,  -8,  -25,  -37
2208334, 1710335440, "2024/3/13 13:10:40",  2,  -52,  1003,  0,  0,  0,  -9,  -27,  -39
2208534, 1710335440, "2024/3/13 13:10:40",  4,  -53,  1001,  0,  0,  -1,  -8,  -25,  -36
2208734, 1710335441, "2024/3/13 13:10:41",  3,  -50,  998,  0,  0,  -1,  -8,  -26,  -37
2208934, 1710335441, "2024/3/13 13:10:41",  1,  -57,  1003,  0,  0,  -1,  -11,  -27,  -37
2209134, 1710335441, "2024/3/13 13:10:41",  4,  -60,  1002,  0,  0,  -1,  -9,  -26,  -38
2209334, 1710335441, "2024/3/13 13:10:41",  4,  -55,  1005,  0,  0,  0,  -9,  -27,  -36
2209534, 1710335441, "2024/3/13 13:10:41",  1,  -56,  1006,  0,  0,  -1,  -9,  -25,  -37
2209734, 1710335442, "2024/3/13 13:10:42",  5,  -63,  1011,  0,  -1,  0,  -9,  -27,  -38
2209934, 1710335442, "2024/3/13 13:10:42",  -2,  -54,  1001,  0,  -1,  -1,  -9,  -27,  -38
2210134, 1710335442, "2024/3/13 13:10:42",  0,  -51,  1002,  0,  0,  0,  -9,  -26,  -37
2210334, 1710335442, "2024/3/13 13:10:42",  7,  -57,  1007,  0,  0,  -1,  -10,  -26,  -38
2210534, 1710335442, "2024/3/13 13:10:42",  9,  -60,  1003,  0,  0,  0,  -11,  -25,  -36
2210734, 1710335443, "2024/3/13 13:10:43",  15,  -51,  1014,  0,  0,  0,  -9,  -26,  -37
2210934, 1710335443, "2024/3/13 13:10:43",  1,  -60,  1004,  0,  0,  -1,  -10,  -26,  -38
2211134, 1710335443, "2024/3/13 13:10:43",  7,  -63,  1002,  0,  0,  0,  -10,  -27,  -37
2211334, 1710335443, "2024/3/13 13:10:43",  6,  -57,  1003,  0,  0,  -1,  -10,  -27,  -37
2211534, 1710335443, "2024/3/13 13:10:43",  0,  -58,  986,  0,  0,  -1,  -9,  -25,  -37
2211734, 1710335444, "2024/3/13 13:10:44",  3,  -61,  1003,  0,  0,  -1,  -9,  -26,  -37
2211934, 1710335444, "2024/3/13 13:10:44",  3,  -60,  1003,  0,  0,  0,  -10,  -26,  -39
2212134, 1710335444, "2024/3/13 13:10:44",  5,  -63,  1003,  0,  0,  0,  -9,  -27,  -39
2212334, 1710335444, "2024/3/13 13:10:44",  11,  -61,  1003,  0,  0,  -1,  -10,  -26,  -38
2212534, 1710335444, "2024/3/13 13:10:44",  6,  -54,  999,  0,  0,  0,  -9,  -26,  -38
2212734, 1710335445, "2024/3/13 13:10:45",  9,  -57,  1004,  0,  0,  0,  -9,  -25,  -37
2212934, 1710335445, "2024/3/13 13:10:45",  2,  -57,  1003,  0,  0,  -1,  -11,  -28,  -39
2213134, 1710335445, "2024/3/13 13:10:45",  3,  -56,  1002,  0,  0,  -1,  -9,  -26,  -37
2213334, 1710335445, "2024/3/13 13:10:45",  6,  -57,  1002,  0,  0,  -1,  -10,  -27,  -38
2213534, 1710335445, "2024/3/13 13:10:45",  4,  -61,  1007,  0,  0,  -1,  -9,  -26,  -38
2213734, 1710335446, "2024/3/13 13:10:46",  6,  -58,  1003,  0,  0,  -1,  -10,  -26,  -38
2213934, 1710335446, "2024/3/13 13:10:46",  8,  -58,  1003,  0,  0,  0,  -8,  -24,  -38
2214134, 1710335446, "2024/3/13 13:10:46",  5,  -63,  1003,  0,  -1,  -1,  -11,  -26,  -37
2214334, 1710335446, "2024/3/13 13:10:46",  3,  -60,  1005,  0,  0,  -1,  -9,  -27,  -37
2214534, 1710335446, "2024/3/13 13:10:46",  9,  -58,  1002,  0,  0,  0,  -9,  -26,  -36
2214734, 1710335447, "2024/3/13 13:10:47",  8,  -54,  1004,  0,  0,  -1,  -9,  -28,  -38
2214934, 1710335447, "2024/3/13 13:10:47",  6,  -57,  1000,  0,  0,  -1,  -9,  -26,  -38
2215134, 1710335447, "2024/3/13 13:10:47",  5,  -57,  1004,  0,  0,  -1,  -10,  -27,  -38
2215334, 1710335447, "2024/3/13 13:10:47",  1,  -59,  1003,  0,  0,  -1,  -9,  -28,  -38
2215534, 1710335447, "2024/3/13 13:10:47",  5,  -60,  1002,  0,  0,  -1,  -10,  -25,  -37
2215734, 1710335448, "2024/3/13 13:10:48",  4,  -55,  1006,  0,  0,  -1,  -10,  -26,  -37
2215934, 1710335448, "2024/3/13 13:10:48",  4,  -62,  1001,  0,  0,  0,  -9,  -26,  -39
2216134, 1710335448, "2024/3/13 13:10:48",  5,  -56,  1002,  0,  0,  -1,  -10,  -27,  -38
2216334, 1710335448, "2024/3/13 13:10:48",  4,  -57,  1003,  0,  0,  0,  -11,  -26,  -39
2216534, 1710335448, "2024/3/13 13:10:48",  3,  -61,  1003,  0,  0,  -1,  -10,  -27,  -38
2216734, 1710335449, "2024/3/13 13:10:49",  9,  -58,  1003,  0,  0,  0,  -9,  -27,  -38
2216934, 1710335449, "2024/3/13 13:10:49",  5,  -59,  1002,  0,  0,  -1,  -9,  -24,  -40
2217134, 1710335449, "2024/3/13 13:10:49",  5,  -60,  1008,  0,  0,  -1,  -10,  -27,  -38
2217334, 1710335449, "2024/3/13 13:10:49",  7,  -60,  1001,  0,  -1,  -1,  -10,  -26,  -37
2217534, 1710335449, "2024/3/13 13:10:49",  6,  -56,  1004,  0,  0,  0,  -11,  -25,  -38
2217734, 1710335450, "2024/3/13 13:10:50",  8,  -56,  1003,  0,  0,  -1,  -10,  -25,  -37
2217934, 1710335450, "2024/3/13 13:10:50",  2,  -58,  1005,  0,  0,  0,  -8,  -25,  -39
2218134, 1710335450, "2024/3/13 13:10:50",  4,  -56,  1001,  0,  0,  -1,  -10,  -27,  -37
2218334, 1710335450, "2024/3/13 13:10:50",  4,  -63,  1002,  0,  0,  -1,  -10,  -26,  -37
2218534, 1710335450, "2024/3/13 13:10:50",  6,  -55,  1001,  0,  0,  -1,  -9,  -26,  -39
2218734, 1710335451, "2024/3/13 13:10:51",  4,  -55,  1003,  0,  0,  0,  -7,  -25,  -37
2218934, 1710335451, "2024/3/13 13:10:51",  5,  -62,  1001,  0,  0,  0,  -11,  -25,  -38
