millis,stamp,datetime,accX,accY,accZ,gyroX,gyroY,gyroZ,compX,compY,compZ
738925, 1710333970, "2024/3/13 12:46:10",  4,  -53,  1004,  0,  0,  0,  -12,  -26,  -36
739125, 1710333970, "2024/3/13 12:46:10",  7,  -60,  1006,  0,  0,  -1,  -11,  -27,  -37
739325, 1710333970, "2024/3/13 12:46:10",  8,  -57,  1001,  0,  0,  0,  -12,  -26,  -37
739525, 1710333971, "2024/3/13 12:46:11",  6,  -62,  1004,  0,  0,  -1,  -11,  -25,  -35
739725, 1710333971, "2024/3/13 12:46:11",  4,  -59,  1002,  0,  0,  -1,  -12,  -27,  -36
739926, 1710333971, "2024/3/13 12:46:11",  4,  -55,  1006,  0,  0,  -1,  -12,  -26,  -36
740126, 1710333971, "2024/3/13 12:46:11",  7,  -57,  1007,  0,  0,  -1,  -10,  -26,  -36
740326, 1710333971, "2024/3/13 12:46:11",  6,  -56,  1002,  0,  0,  -1,  -11,  -27,  -36
740526, 1710333972, "2024/3/13 12:46:12",  3,  -58,  1008,  0,  0,  -1,  -13,  -27,  -36
740726, 1710333972, "2024/3/13 12:46:12",  10,  -55,  1003,  0,  0,  0,  -10,  -26,  -36
740926, 1710333972, "2024/3/13 12:46:12",  2,  -61,  1007,  0,  0,  -1,  -12,  -25,  -36
741126, 1710333972, "2024/3/13 12:46:12",  9,  -58,  1007,  0,  0,  -1,  -11,  -26,  -36
741326, 1710333972, "2024/3/13 12:46:12",  10,  -61,  1003,  0,  0,  -1,  -11,  -26,  -37
741526, 1710333973, "2024/3/13 12:46:13",  3,  -65,  1007,  0,  0,  -1,  -12,  -26,  -37
741726, 1710333973, "2024/3/13 12:46:13",  3,  -51,  1003,  0,  0,  0,  -11,  -26,  -37
741926, 1710333973, "2024/3/13 12:46:13",  10,  -57,  1004,  0,  0,  0,  -11,  -26,  -36
742126, 1710333973, "2024/3/13 12:46:13",  9,  -54,  1004,  0,  0,  0,  -12,  -24,  -36
742326, 1710333973, "2024/3/13 12:46:13",  5,  -61,  1006,  0,  0,  -1,  -12,  -26,  -36
742526, 1710333974, "2024/3/13 12:46:14",  3,  -58,  1004,  0,  0,  -1,  -12,  -27,  -35
742726, 1710333974, "2024/3/13 12:46:14",  6,  -60,  1004,  0,  -1,  -1,  -11,  -27,  -36
742926, 1710333974, "2024/3/13 12:46:14",  1,  -60,  1003,  0,  0,  0,  -10,  -26,  -37
743126, 1710333974, "2024/3/13 12:46:14",  6,  -60,  1003,  0,  0,  0,  -11,  -26,  -36
743326, 1710333974, "2024/3/13 12:46:14",  6,  -60,  1002,  0,  0,  -1,  -11,  -26,  -36
743526, 1710333975, "2024/3/13 12:46:15",  6,  -59,  1002,  0,  0,  -1,  -12,  -26,  -36
743726, 1710333975, "2024/3/13 12:46:15",  2,  -61,  1003,  0,  0,  -1,  -8,  -26,  -36
743926, 1710333975, "2024/3/13 12:46:15",  5,  -63,  1006,  0,  0,  -1,  -10,  -25,  -34
744126, 1710333975, "2024/3/13 12:46:15",  4,  -59,  1005,  0,  0,  0,  -11,  -27,  -36
744326, 1710333975, "2024/3/13 12:46:15",  5,  -60,  1004,  0,  0,  0,  -12,  -27,  -36
744526, 1710333976, "2024/3/13 12:46:16",  4,  -64,  1006,  0,  0,  -1,  -12,  -26,  -36
744726, 1710333976, "2024/3/13 12:46:16",  4,  -60,  1003,  0,  -1,  -1,  -12,  -26,  -36
744926, 1710333976, "2024/3/13 12:46:16",  6,  -55,  1003,  0,  0,  -1,  -11,  -27,  -36
745126, 1710333976, "2024/3/13 12:46:16",  8,  -60,  1004,  0,  0,  0,  -11,  -26,  -35
745326, 1710333976, "2024/3/13 12:46:16",  2,  -61,  1005,  0,  0,  -1,  -12,  -28,  -35
745526, 1710333977, "2024/3/13 12:46:17",  8,  -54,  1005,  0,  0,  0,  -11,  -27,  -37
745726, 1710333977, "2024/3/13 12:46:17",  4,  -56,  1004,  0,  0,  -1,  -11,  -25,  -36
745926, 1710333977, "2024/3/13 12:46:17",  9,  -66,  1004,  0,  0,  -1,  -11,  -25,  -37
746126, 1710333977, "2024/3/13 12:46:17",  9,  -59,  1001,  0,  -1,  -1,  -11,  -28,  -34
746326, 1710333977, "2024/3/13 12:46:17",  10,  -58,  1007,  0,  0,  -1,  -11,  -26,  -36
746526, 1710333978, "2024/3/13 12:46:18",  8,  -56,  1004,  0,  0,  -1,  -11,  -26,  -36
746726, 1710333978, "2024/3/13 12:46:18",  4,  -57,  999,  0,  0,  -1,  -11,  -25,  -36
746926, 1710333978, "2024/3/13 12:46:18",  5,  -64,  1007,  0,  0,  0,  -11,  -26,  -35
747126, 1710333978, "2024/3/13 12:46:18",  1,  -58,  1002,  0,  0,  0,  -10,  -25,  -36
747326, 1710333978, "2024/3/13 12:46:18",  4,  -54,  1005,  0,  0,  0,  -11,  -26,  -36
747526, 1710333979, "2024/3/13 12:46:19",  5,  -56,  1002,  0,  -1,  -1,  -10,  -26,  -36
747726, 1710333979, "2024/3/13 12:46:19",  9,  -57,  1007,  0,  0,  0,  -12,  -25,  -36
747926, 1710333979, "2024/3/13 12:46:19",  2,  -55,  1004,  0,  0,  -1,  -10,  -25,  -36
748126, 1710333979, "2024/3/13 12:46:19",  11,  -65,  1006,  0,  0,  0,  -11,  -26,  -36
748326, 1710333979, "2024/3/13 12:46:19",  6,  -56,  1006,  0,  0,  0,  -10,  -26,  -37
748526, 1710333980, "2024/3/13 12:46:20",  9,  -56,  1002,  0,  0,  0,  -11,  -25,  -36
748726, 1710333980, "2024/3/13 12:46:20",  7,  -60,  1005,  0,  0,  -1,  -11,  -26,  -36
748926, 1710333980, "2024/3/13 12:46:20",  8,  -58,  1006,  0,  -1,  -1,  -11,  -25,  -36
749126, 1710333980, "2024/3/13 12:46:20",  9,  -58,  1003,  0,  0,  -1,  -10,  -26,  -36
749326, 1710333980, "2024/3/13 12:46:20",  6,  -53,  1005,  0,  0,  -1,  -12,  -26,  -36
749526, 1710333981, "2024/3/13 12:46:21",  9,  -55,  1005,  0,  0,  -1,  -11,  -28,  -36
749726, 1710333981, "2024/3/13 12:46:21",  6,  -55,  1001,  0,  0,  0,  -12,  -25,  -37
749926, 1710333981, "2024/3/13 12:46:21",  1,  -60,  1009,  0,  0,  0,  -12,  -27,  -38
750126, 1710333981, "2024/3/13 12:46:21",  10,  -53,  1005,  0,  0,  0,  -11,  -28,  -37
750326, 1710333981, "2024/3/13 12:46:21",  9,  -59,  1001,  0,  -1,  0,  -11,  -27,  -37
750526, 1710333982, "2024/3/13 12:46:22",  9,  -52,  1005,  0,  0,  0,  -11,  -26,  -37
750726, 1710333982, "2024/3/13 12:46:22",  4,  -64,  1005,  0,  0,  -1,  -11,  -27,  -37
750926, 1710333982, "2024/3/13 12:46:22",  7,  -60,  1005,  0,  0,  -1,  -10,  -26,  -37
751126, 1710333982, "2024/3/13 12:46:22",  8,  -56,  1006,  0,  0,  0,  -12,  -27,  -35
751326, 1710333982, "2024/3/13 12:46:22",  5,  -52,  1002,  0,  -1,  0,  -10,  -27,  -36
751526, 1710333983, "2024/3/13 12:46:23",  6,  -55,  1004,  0,  0,  -1,  -10,  -26,  -34
751726, 1710333983, "2024/3/13 12:46:23",  5,  -52,  1004,  0,  0,  -1,  -11,  -26,  -36
751926, 1710333983, "2024/3/13 12:46:23",  1,  -55,  1006,  0,  -1,  0,  -11,  -27,  -34
752126, 1710333983, "2024/3/13 12:46:23",  4,  -53,  1003,  0,  0,  -1,  -11,  -27,  -33
752326, 1710333983, "2024/3/13 12:46:23",  0,  -58,  1005,  0,  0,  0,  -12,  -25,  -34
752526, 1710333984, "2024/3/13 12:46:24",  2,  -57,  1007,  0,  0,  -1,  -11,  -26,  -34
752726, 1710333984, "2024/3/13 12:46:24",  4,  -61,  1003,  0,  0,  -1,  -11,  -28,  -35
752926, 1710333984, "2024/3/13 12:46:24",  7,  -59,  1004,  0,  0,  -1,  -10,  -26,  -34
753126, 1710333984, "2024/3/13 12:46:24",  9,  -44,  1000,  0,  -1,  -1,  -11,  -26,  -36
753326, 1710333984, "2024/3/13 12:46:24",  7,  -67,  1004,  0,  0,  -1,  -11,  -26,  -36
753526, 1710333985, "2024/3/13 12:46:25",  5,  -62,  1003,  0,  -1,  -1,  -10,  -25,  -36
753726, 1710333985, "2024/3/13 12:46:25",  0,  -62,  1004,  0,  0,  -1,  -10,  -26,  -36
753926, 1710333985, "2024/3/13 12:46:25",  5,  -55,  1003,  0,  -1,  -1,  -11,  -27,  -36
754126, 1710333985, "2024/3/13 12:46:25",  5,  -60,  1008,  0,  0,  -1,  -11,  -26,  -36
754326, 1710333985, "2024/3/13 12:46:25",  6,  -56,  1001,  0,  0,  -1,  -12,  -28,  -36
754526, 1710333986, "2024/3/13 12:46:26",  7,  -61,  1005,  0,  0,  -1,  -11,  -27,  -36
754726, 1710333986, "2024/3/13 12:46:26",  2,  -58,  1002,  0,  0,  -1,  -11,  -26,  -34
754926, 1710333986, "2024/3/13 12:46:26",  3,  -59,  1000,  0,  0,  0,  -12,  -26,  -36
755126, 1710333986, "2024/3/13 12:46:26",  8,  -57,  1000,  0,  0,  0,  -11,  -27,  -36
755326, 1710333986, "2024/3/13 12:46:26",  3,  -54,  1006,  0,  0,  -1,  -11,  -26,  -34
755526, 1710333987, "2024/3/13 12:46:27",  4,  -55,  1000,  0,  0,  -1,  -12,  -26,  -36
755726, 1710333987, "2024/3/13 12:46:27",  6,  -58,  1001,  0,  0,  -1,  -11,  -26,  -37
755926, 1710333987, "2024/3/13 12:46:27",  4,  -58,  1005,  0,  0,  0,  -10,  -25,  -36
756126, 1710333987, "2024/3/13 12:46:27",  5,  -52,  1008,  0,  0,  0,  -12,  -25,  -35
756326, 1710333987, "2024/3/13 12:46:27",  12,  -52,  1007,  0,  0,  -1,  -9,  -28,  -35
756526, 1710333988, "2024/3/13 12:46:28",  4,  -60,  1008,  0,  -1,  0,  -11,  -25,  -35
756726, 1710333988, "2024/3/13 12:46:28",  4,  -55,  1005,  0,  0,  -1,  -11,  -26,  -36
756926, 1710333988, "2024/3/13 12:46:28",  6,  -52,  1006,  0,  0,  -1,  -11,  -27,  -35
757126, 1710333988, "2024/3/13 12:46:28",  0,  -53,  1006,  0,  0,  -1,  -11,  -27,  -36
757326, 1710333988, "2024/3/13 12:46:28",  4,  -61,  1002,  0,  0,  -1,  -12,  -27,  -36
757526, 1710333989, "2024/3/13 12:46:29",  5,  -62,  1006,  0,  0,  -1,  -11,  -27,  -35
757726, 1710333989, "2024/3/13 12:46:29",  1,  -64,  1002,  0,  0,  0,  -9,  -27,  -36
757926, 1710333989, "2024/3/13 12:46:29",  2,  -54,  1003,  0,  0,  0,  -12,  -26,  -36
758126, 1710333989, "2024/3/13 12:46:29",  3,  -57,  1003,  0,  0,  -1,  -11,  -27,  -35
758326, 1710333989, "2024/3/13 12:46:29",  4,  -59,  1004,  0,  -1,  -1,  -10,  -26,  -36
758526, 1710333990, "2024/3/13 12:46:30",  8,  -57,  1004,  0,  0,  -1,  -11,  -28,  -36
758726, 1710333990, "2024/3/13 12:46:30",  4,  -55,  1000,  0,  0,  0,  -11,  -28,  -34
758926, 1710333990, "2024/3/13 12:46:30",  5,  -52,  1004,  0,  0,  -1,  -13,  -27,  -36
759126, 1710333990, "2024/3/13 12:46:30",  5,  -58,  1008,  0,  0,  0,  -11,  -25,  -36
759326, 1710333990, "2024/3/13 12:46:30",  4,  -62,  1003,  0,  0,  0,  -10,  -27,  -37
759526, 1710333991, "2024/3/13 12:46:31",  7,  -60,  1002,  0,  0,  -1,  -10,  -26,  -36
759726, 1710333991, "2024/3/13 12:46:31",  6,  -63,  1006,  0,  0,  0,  -11,  -26,  -35
759926, 1710333991, "2024/3/13 12:46:31",  7,  -55,  1003,  0,  0,  -1,  -12,  -26,  -36
760126, 1710333991, "2024/3/13 12:46:31",  5,  -55,  1006,  0,  0,  -1,  -11,  -25,  -36
760326, 1710333991, "2024/3/13 12:46:31",  4,  -56,  1003,  0,  0,  -1,  -11,  -27,  -36
760526, 1710333992, "2024/3/13 12:46:32",  5,  -56,  1002,  0,  0,  0,  -12,  -25,  -36
760726, 1710333992, "2024/3/13 12:46:32",  6,  -55,  1006,  0,  0,  0,  -11,  -27,  -36
760926, 1710333992, "2024/3/13 12:46:32",  4,  -62,  1006,  0,  0,  -1,  -10,  -25,  -35
761126, 1710333992, "2024/3/13 12:46:32",  0,  -62,  999,  0,  0,  -1,  -11,  -27,  -36
761326, 1710333992, "2024/3/13 12:46:32",  6,  -57,  1001,  0,  0,  -1,  -13,  -26,  -36
761526, 1710333993, "2024/3/13 12:46:33",  2,  -56,  1002,  0,  0,  -1,  -12,  -26,  -37
761726, 1710333993, "2024/3/13 12:46:33",  0,  -62,  1007,  0,  0,  0,  -11,  -26,  -35
761926, 1710333993, "2024/3/13 12:46:33",  -1,  -60,  1003,  0,  0,  0,  -12,  -26,  -36
762126, 1710333993, "2024/3/13 12:46:33",  6,  -56,  1004,  0,  0,  -1,  -11,  -27,  -36
762326, 1710333993, "2024/3/13 12:46:33",  7,  -57,  1007,  0,  0,  -1,  -11,  -26,  -36
762526, 1710333994, "2024/3/13 12:46:34",  10,  -57,  1004,  0,  0,  0,  -11,  -26,  -36
762726, 1710333994, "2024/3/13 12:46:34",  5,  -62,  1001,  0,  0,  -1,  -11,  -26,  -35
762926, 1710333994, "2024/3/13 12:46:34",  6,  -57,  1007,  0,  0,  -1,  -12,  -27,  -35
763126, 1710333994, "2024/3/13 12:46:34",  5,  -57,  1003,  0,  0,  0,  -14,  -27,  -36
763326, 1710333994, "2024/3/13 12:46:34",  4,  -55,  1006,  0,  -1,  0,  -10,  -25,  -36
763526, 1710333995, "2024/3/13 12:46:35",  4,  -57,  1003,  0,  -1,  -1,  -10,  -25,  -37
763726, 1710333995, "2024/3/13 12:46:35",  6,  -58,  1001,  0,  -1,  -1,  -11,  -27,  -34
763926, 1710333995, "2024/3/13 12:46:35",  7,  -56,  1004,  0,  0,  0,  -10,  -27,  -37
764126, 1710333995, "2024/3/13 12:46:35",  1,  -54,  1001,  0,  0,  -1,  -11,  -27,  -35
764326, 1710333995, "2024/3/13 12:46:35",  6,  -58,  1002,  0,  0,  0,  -10,  -26,  -37
764526, 1710333996, "2024/3/13 12:46:36",  5,  -58,  1007,  0,  0,  0,  -12,  -26,  -36
764726, 1710333996, "2024/3/13 12:46:36",  5,  -57,  1008,  0,  0,  0,  -10,  -24,  -36
764926, 1710333996, "2024/3/13 12:46:36",  5,  -57,  998,  0,  0,  0,  -11,  -25,  -37
765126, 1710333996, "2024/3/13 12:46:36",  1,  -57,  1002,  0,  0,  -1,  -11,  -26,  -35
765326, 1710333996, "2024/3/13 12:46:36",  7,  -57,  1003,  0,  0,  -1,  -11,  -27,  -35
765526, 1710333997, "2024/3/13 12:46:37",  5,  -59,  1005,  0,  0,  0,  -9,  -25,  -35
765726, 1710333997, "2024/3/13 12:46:37",  1,  -63,  1007,  0,  0,  0,  -11,  -27,  -34
765926, 1710333997, "2024/3/13 12:46:37",  7,  -55,  1005,  0,  0,  0,  -12,  -25,  -35
766126, 1710333997, "2024/3/13 12:46:37",  4,  -56,  1008,  0,  0,  -1,  -12,  -27,  -35
766326, 1710333997, "2024/3/13 12:46:37",  6,  -57,  1001,  0,  0,  -1,  -11,  -26,  -36
766526, 1710333998, "2024/3/13 12:46:38",  6,  -56,  1005,  0,  0,  -1,  -12,  -26,  -35
766726, 1710333998, "2024/3/13 12:46:38",  2,  -56,  1004,  0,  0,  0,  -11,  -25,  -35
766926, 1710333998, "2024/3/13 12:46:38",  2,  -57,  1003,  0,  -1,  0,  -11,  -27,  -36
767126, 1710333998, "2024/3/13 12:46:38",  5,  -61,  1003,  0,  0,  -1,  -10,  -25,  -36
767326, 1710333998, "2024/3/13 12:46:38",  6,  -55,  1004,  0,  0,  -1,  -11,  -27,  -36
767526, 1710333999, "2024/3/13 12:46:39",  3,  -60,  1007,  0,  -1,  -1,  -11,  -27,  -35
767726, 1710333999, "2024/3/13 12:46:39",  1,  -60,  1003,  0,  0,  0,  -11,  -26,  -36
767926, 1710333999, "2024/3/13 12:46:39",  5,  -62,  1004,  0,  0,  -1,  -10,  -26,  -36
768126, 1710333999, "2024/3/13 12:46:39",  1,  -53,  999,  0,  0,  0,  -11,  -25,  -36
768326, 1710333999, "2024/3/13 12:46:39",  -1,  -55,  1004,  0,  0,  0,  -11,  -26,  -35
768526, 1710334000, "2024/3/13 12:46:40",  6,  -62,  1005,  0,  0,  -1,  -12,  -25,  -36
768726, 1710334000, "2024/3/13 12:46:40",  4,  -52,  1006,  0,  -1,  0,  -12,  -26,  -36
768926, 1710334000, "2024/3/13 12:46:40",  7,  -57,  1006,  0,  0,  0,  -9,  -24,  -36
769126, 1710334000, "2024/3/13 12:46:40",  1,  -55,  1006,  0,  0,  -1,  -12,  -26,  -35
769326, 1710334000, "2024/3/13 12:46:40",  1,  -60,  1003,  0,  0,  -1,  -11,  -27,  -35
769526, 1710334001, "2024/3/13 12:46:41",  4,  -54,  1007,  0,  -1,  -1,  -12,  -27,  -35
769726, 1710334001, "2024/3/13 12:46:41",  5,  -58,  1005,  0,  0,  -1,  -10,  -26,  -36
769926, 1710334001, "2024/3/13 12:46:41",  5,  -58,  1005,  0,  -1,  -1,  -11,  -25,  -35
770126, 1710334001, "2024/3/13 12:46:41",  2,  -50,  1004,  0,  0,  0,  -12,  -26,  -35
770326, 1710334001, "2024/3/13 12:46:41",  4,  -54,  1004,  0,  0,  0,  -11,  -27,  -34
770526, 1710334002, "2024/3/13 12:46:42",  5,  -58,  1002,  0,  0,  -1,  -11,  -26,  -36
770726, 1710334002, "2024/3/13 12:46:42",  1,  -57,  1004,  0,  0,  -1,  -11,  -25,  -36
770926, 1710334002, "2024/3/13 12:46:42",  0,  -56,  1005,  0,  0,  -1,  -13,  -26,  -35
771126, 1710334002, "2024/3/13 12:46:42",  9,  -59,  1003,  0,  0,  -1,  -12,  -26,  -36
771326, 1710334002, "2024/3/13 12:46:42",  4,  -55,  1004,  0,  0,  -1,  -11,  -27,  -36
771526, 1710334003, "2024/3/13 12:46:43",  7,  -57,  1005,  0,  -1,  -1,  -11,  -28,  -37
771726, 1710334003, "2024/3/13 12:46:43",  4,  -60,  1004,  0,  0,  -1,  -9,  -27,  -34
771926, 1710334003, "2024/3/13 12:46:43",  4,  -64,  1007,  0,  -1,  -1,  -11,  -26,  -36
772126, 1710334003, "2024/3/13 12:46:43",  7,  -55,  1001,  0,  0,  -1,  -12,  -25,  -36
772326, 1710334003, "2024/3/13 12:46:43",  5,  -58,  1003,  0,  0,  -1,  -11,  -26,  -36
772526, 1710334004, "2024/3/13 12:46:44",  6,  -54,  1005,  0,  -1,  0,  -12,  -26,  -35
772726, 1710334004, "2024/3/13 12:46:44",  8,  -57,  1005,  0,  -1,  -1,  -12,  -25,  -36
772926, 1710334004, "2024/3/13 12:46:44",  4,  -57,  1000,  0,  0,  -1,  -12,  -28,  -37
773126, 1710334004, "2024/3/13 12:46:44",  0,  -58,  1005,  0,  0,  -1,  -11,  -27,  -37
773326, 1710334004, "2024/3/13 12:46:44",  5,  -64,  1007,  0,  0,  0,  -11,  -26,  -35
773526, 1710334005, "2024/3/13 12:46:45",  4,  -60,  1006,  0,  0,  -1,  -13,  -27,  -35
773726, 1710334005, "2024/3/13 12:46:45",  1,  -60,  1003,  0,  0,  -1,  -11,  -26,  -37
773926, 1710334005, "2024/3/13 12:46:45",  7,  -60,  1005,  0,  0,  0,  -12,  -26,  -35
774126, 1710334005, "2024/3/13 12:46:45",  6,  -56,  1008,  0,  0,  0,  -11,  -26,  -37
774326, 1710334005, "2024/3/13 12:46:45",  6,  -62,  1002,  0,  0,  -1,  -13,  -25,  -36
774526, 1710334006, "2024/3/13 12:46:46",  4,  -55,  1003,  0,  0,  -1,  -12,  -26,  -36
774726, 1710334006, "2024/3/13 12:46:46",  2,  -62,  1004,  0,  0,  -1,  -11,  -26,  -36
774926, 1710334006, "2024/3/13 12:46:46",  2,  -57,  1001,  0,  0,  -1,  -12,  -25,  -35
775126, 1710334006, "2024/3/13 12:46:46",  5,  -57,  1005,  0,  0,  -1,  -12,  -24,  -35
775326, 1710334006, "2024/3/13 12:46:46",  9,  -62,  1002,  0,  -1,  -1,  -11,  -27,  -36
775526, 1710334007, "2024/3/13 12:46:47",  2,  -61,  1001,  0,  -1,  -1,  -12,  -28,  -36
775726, 1710334007, "2024/3/13 12:46:47",  4,  -63,  1004,  0,  0,  0,  -11,  -26,  -37
775926, 1710334007, "2024/3/13 12:46:47",  7,  -59,  1004,  0,  0,  -1,  -11,  -28,  -37
776126, 1710334007, "2024/3/13 12:46:47",  7,  -60,  1005,  0,  0,  -1,  -10,  -25,  -37
776326, 1710334007, "2024/3/13 12:46:47",  0,  -60,  1004,  0,  0,  0,  -10,  -26,  -36
776526, 1710334008, "2024/3/13 12:46:48",  2,  -56,  1004,  0,  0,  0,  -11,  -25,  -35
776726, 1710334008, "2024/3/13 12:46:48",  3,  -62,  1002,  0,  0,  -1,  -12,  -27,  -37
776926, 1710334008, "2024/3/13 12:46:48",  6,  -57,  1004,  0,  -1,  -1,  -11,  -27,  -36
777126, 1710334008, "2024/3/13 12:46:48",  1,  -54,  1006,  0,  0,  -1,  -11,  -26,  -36
777326, 1710334008, "2024/3/13 12:46:48",  6,  -51,  1002,  0,  0,  -1,  -12,  -27,  -36
777526, 1710334009, "2024/3/13 12:46:49",  4,  -60,  1003,  0,  0,  0,  -11,  -26,  -37
777726, 1710334009, "2024/3/13 12:46:49",  6,  -61,  1005,  0,  0,  -1,  -11,  -26,  -36
777926, 1710334009, "2024/3/13 12:46:49",  7,  -57,  1008,  0,  0,  -1,  -11,  -27,  -36
778126, 1710334009, "2024/3/13 12:46:49",  1,  -61,  1000,  0,  0,  -1,  -11,  -27,  -35
778326, 1710334009, "2024/3/13 12:46:49",  3,  -52,  1005,  0,  -1,  -1,  -12,  -26,  -35
778526, 1710334010, "2024/3/13 12:46:50",  4,  -59,  1003,  0,  0,  0,  -12,  -27,  -35
778726, 1710334010, "2024/3/13 12:46:50",  4,  -55,  1006,  0,  -1,  -1,  -11,  -25,  -36
778926, 1710334010, "2024/3/13 12:46:50",  6,  -54,  1003,  0,  0,  -1,  -11,  -25,  -35
779126, 1710334010, "2024/3/13 12:46:50",  2,  -58,  1001,  0,  0,  0,  -11,  -27,  -36
779326, 1710334010, "2024/3/13 12:46:50",  4,  -57,  1006,  0,  0,  0,  -10,  -27,  -36
779526, 1710334011, "2024/3/13 12:46:51",  5,  -61,  1008,  0,  0,  -1,  -12,  -27,  -36
779726, 1710334011, "2024/3/13 12:46:51",  6,  -60,  1004,  0,  0,  0,  -11,  -26,  -35
779926, 1710334011, "2024/3/13 12:46:51",  5,  -57,  1002,  0,  0,  -1,  -11,  -26,  -37
780126, 1710334011, "2024/3/13 12:46:51",  0,  -55,  1003,  0,  0,  0,  -11,  -27,  -36
780326, 1710334011, "2024/3/13 12:46:51",  9,  -58,  1002,  0,  0,  -1,  -11,  -26,  -36
780526, 1710334012, "2024/3/13 12:46:52",  5,  -59,  1007,  0,  0,  -1,  -11,  -27,  -36
780726, 1710334012, "2024/3/13 12:46:52",  8,  -59,  1004,  0,  0,  0,  -11,  -27,  -36
780926, 1710334012, "2024/3/13 12:46:52",  8,  -60,  1004,  0,  0,  0,  -11,  -25,  -36
781126, 1710334012, "2024/3/13 12:46:52",  4,  -61,  1005,  0,  0,  -1,  -11,  -25,  -36
781326, 1710334012, "2024/3/13 12:46:52",  0,  -56,  1004,  0,  0,  -1,  -11,  -27,  -35
781526, 1710334013, "2024/3/13 12:46:53",  9,  -59,  1005,  0,  0,  0,  -12,  -26,  -35
781726, 1710334013, "2024/3/13 12:46:53",  5,  -51,  1002,  0,  0,  -1,  -12,  -26,  -34
781926, 1710334013, "2024/3/13 12:46:53",  5,  -50,  1002,  0,  0,  0,  -11,  -24,  -36
782126, 1710334013, "2024/3/13 12:46:53",  2,  -58,  1003,  0,  0,  -1,  -9,  -27,  -35
782326, 1710334013, "2024/3/13 12:46:53",  5,  -62,  1003,  0,  -1,  -1,  -11,  -27,  -36
782526, 1710334014, "2024/3/13 12:46:54",  7,  -57,  1004,  0,  0,  0,  -10,  -26,  -34
782726, 1710334014, "2024/3/13 12:46:54",  4,  -60,  1005,  0,  0,  0,  -11,  -27,  -37
782926, 1710334014, "2024/3/13 12:46:54",  6,  -61,  1004,  0,  0,  0,  -12,  -26,  -36
783126, 1710334014, "2024/3/13 12:46:54",  4,  -61,  1006,  0,  0,  -1,  -10,  -25,  -35
783326, 1710334014, "2024/3/13 12:46:54",  5,  -58,  1003,  0,  0,  0,  -11,  -25,  -36
783526, 1710334015, "2024/3/13 12:46:55",  4,  -55,  1004,  0,  0,  0,  -10,  -25,  -38
783726, 1710334015, "2024/3/13 12:46:55",  6,  -63,  1003,  0,  0,  -1,  -11,  -27,  -35
783926, 1710334015, "2024/3/13 12:46:55",  4,  -58,  1004,  0,  0,  -1,  -11,  -26,  -35
784126, 1710334015, "2024/3/13 12:46:55",  8,  -53,  1006,  0,  0,  0,  -10,  -25,  -36
784326, 1710334015, "2024/3/13 12:46:55",  6,  -64,  1007,  0,  0,  -1,  -10,  -27,  -36
784526, 1710334016, "2024/3/13 12:46:56",  6,  -63,  1005,  0,  0,  -1,  -10,  -26,  -36
784726, 1710334016, "2024/3/13 12:46:56",  2,  -59,  1006,  0,  0,  -1,  -12,  -27,  -36
784926, 1710334016, "2024/3/13 12:46:56",  2,  -59,  1001,  0,  0,  0,  -11,  -24,  -35
785126, 1710334016, "2024/3/13 12:46:56",  1,  -58,  1003,  0,  0,  -1,  -12,  -26,  -35
785326, 1710334016, "2024/3/13 12:46:56",  9,  -61,  1004,  0,  0,  0,  -11,  -25,  -36
785526, 1710334017, "2024/3/13 12:46:57",  3,  -59,  1002,  0,  0,  0,  -11,  -25,  -36
785726, 1710334017, "2024/3/13 12:46:57",  1,  -58,  1009,  0,  0,  0,  -12,  -26,  -35
785926, 1710334017, "2024/3/13 12:46:57",  6,  -59,  1004,  0,  0,  0,  -11,  -28,  -37
786126, 1710334017, "2024/3/13 12:46:57",  4,  -59,  1003,  0,  -1,  -1,  -11,  -25,  -36
786326, 1710334017, "2024/3/13 12:46:57",  3,  -56,  1003,  0,  0,  -1,  -12,  -25,  -36
786526, 1710334018, "2024/3/13 12:46:58",  3,  -54,  1006,  0,  -1,  -1,  -10,  -26,  -35
786726, 1710334018, "2024/3/13 12:46:58",  8,  -58,  1005,  0,  0,  -1,  -12,  -27,  -36
786926, 1710334018, "2024/3/13 12:46:58",  3,  -67,  1004,  0,  0,  0,  -11,  -27,  -35
787126, 1710334018, "2024/3/13 12:46:58",  2,  -59,  1004,  0,  0,  0,  -11,  -26,  -34
787326, 1710334018, "2024/3/13 12:46:58",  3,  -55,  1004,  0,  0,  -1,  -11,  -27,  -36
787526, 1710334019, "2024/3/13 12:46:59",  1,  -59,  1005,  0,  0,  -1,  -11,  -25,  -35
787726, 1710334019, "2024/3/13 12:46:59",  5,  -56,  1005,  0,  0,  -1,  -10,  -26,  -34
787926, 1710334019, "2024/3/13 12:46:59",  6,  -59,  1008,  0,  0,  -1,  -11,  -27,  -36
788126, 1710334019, "2024/3/13 12:46:59",  2,  -64,  1003,  0,  -1,  -1,  -11,  -26,  -36
788326, 1710334019, "2024/3/13 12:46:59",  2,  -59,  1001,  0,  0,  0,  -11,  -26,  -36
788526, 1710334020, "2024/3/13 12:47:0",  2,  -57,  1000,  0,  0,  -1,  -11,  -26,  -36
788726, 1710334020, "2024/3/13 12:47:0",  2,  -55,  1005,  0,  0,  -1,  -11,  -26,  -36
788926, 1710334020, "2024/3/13 12:47:0",  6,  -54,  1005,  0,  0,  -1,  -11,  -27,  -36
789126, 1710334020, "2024/3/13 12:47:0",  3,  -57,  1004,  0,  0,  -1,  -11,  -25,  -35
789326, 1710334020, "2024/3/13 12:47:0",  2,  -55,  1005,  0,  0,  -1,  -11,  -27,  -36
789526, 1710334021, "2024/3/13 12:47:1",  5,  -61,  1000,  0,  0,  -1,  -10,  -25,  -36
789726, 1710334021, "2024/3/13 12:47:1",  4,  -61,  1003,  0,  0,  -1,  -12,  -25,  -36
789926, 1710334021, "2024/3/13 12:47:1",  1,  -52,  1004,  0,  0,  -1,  -11,  -27,  -36
790126, 1710334021, "2024/3/13 12:47:1",  6,  -56,  1006,  0,  0,  -1,  -11,  -26,  -37
790326, 1710334021, "2024/3/13 12:47:1",  1,  -60,  1002,  0,  0,  -1,  -12,  -27,  -35
790526, 1710334022, "2024/3/13 12:47:2",  4,  -62,  1000,  0,  0,  -1,  -10,  -27,  -35
790726, 1710334022, "2024/3/13 12:47:2",  4,  -55,  1004,  0,  0,  -1,  -10,  -25,  -34
790926, 1710334022, "2024/3/13 12:47:2",  6,  -59,  1005,  0,  0,  -1,  -10,  -26,  -36
791126, 1710334022, "2024/3/13 12:47:2",  5,  -58,  1005,  0,  0,  -1,  -10,  -26,  -37
791326, 1710334022, "2024/3/13 12:47:2",  3,  -62,  1006,  0,  0,  -1,  -10,  -24,  -36
791526, 1710334023, "2024/3/13 12:47:3",  4,  -57,  1005,  0,  0,  -1,  -12,  -27,  -36
791726, 1710334023, "2024/3/13 12:47:3",  5,  -53,  1007,  0,  -1,  -1,  -11,  -27,  -35
791926, 1710334023, "2024/3/13 12:47:3",  10,  -60,  1006,  0,  0,  -1,  -10,  -24,  -36
792126, 1710334023, "2024/3/13 12:47:3",  3,  -56,  1004,  0,  0,  -1,  -10,  -26,  -35
792326, 1710334023, "2024/3/13 12:47:3",  6,  -56,  1006,  0,  0,  -1,  -13,  -27,  -35
792526, 1710334024, "2024/3/13 12:47:4",  5,  -59,  1003,  0,  0,  0,  -12,  -27,  -38
792726, 1710334024, "2024/3/13 12:47:4",  3,  -55,  1005,  0,  0,  0,  -11,  -26,  -34
792926, 1710334024, "2024/3/13 12:47:4",  1,  -59,  1005,  0,  0,  -1,  -10,  -28,  -36
793126, 1710334024, "2024/3/13 12:47:4",  6,  -63,  1002,  0,  0,  -1,  -9,  -28,  -36
793326, 1710334024, "2024/3/13 12:47:4",  7,  -64,  1002,  0,  0,  -1,  -11,  -26,  -35
793526, 1710334025, "2024/3/13 12:47:5",  7,  -59,  1004,  0,  0,  -1,  -11,  -27,  -36
793726, 1710334025, "2024/3/13 12:47:5",  4,  -61,  1005,  0,  0,  0,  -11,  -27,  -36
793926, 1710334025, "2024/3/13 12:47:5",  4,  -59,  1004,  0,  0,  0,  -11,  -27,  -36
794126, 1710334025, "2024/3/13 12:47:5",  8,  -59,  1003,  0,  -1,  -1,  -11,  -25,  -35
794326, 1710334025, "2024/3/13 12:47:5",  3,  -53,  1004,  0,  -1,  -1,  -9,  -26,  -37
794526, 1710334026, "2024/3/13 12:47:6",  -2,  -56,  1004,  0,  0,  -1,  -11,  -26,  -37
794726, 1710334026, "2024/3/13 12:47:6",  3,  -60,  1005,  0,  0,  -1,  -10,  -27,  -36
794926, 1710334026, "2024/3/13 12:47:6",  7,  -64,  1008,  0,  0,  -1,  -10,  -28,  -35
795126, 1710334026, "2024/3/13 12:47:6",  7,  -59,  1004,  0,  0,  0,  -11,  -28,  -35
795326, 1710334026, "2024/3/13 12:47:6",  11,  -60,  1003,  0,  -1,  0,  -10,  -27,  -36
795526, 1710334027, "2024/3/13 12:47:7",  4,  -51,  1004,  0,  0,  -1,  -12,  -25,  -37
795726, 1710334027, "2024/3/13 12:47:7",  6,  -59,  1000,  0,  0,  -1,  -12,  -26,  -35
795926, 1710334027, "2024/3/13 12:47:7",  8,  -68,  1007,  0,  0,  -1,  -11,  -26,  -36
796126, 1710334027, "2024/3/13 12:47:7",  15,  -56,  1005,  0,  0,  0,  -11,  -28,  -36
796326, 1710334027, "2024/3/13 12:47:7",  8,  -48,  1002,  0,  0,  -1,  -11,  -26,  -35
796526, 1710334028, "2024/3/13 12:47:8",  4,  -54,  1002,  0,  0,  -1,  -11,  -26,  -36
796726, 1710334028, "2024/3/13 12:47:8",  3,  -63,  1002,  0,  0,  0,  -12,  -26,  -36
796926, 1710334028, "2024/3/13 12:47:8",  3,  -62,  1005,  0,  0,  0,  -12,  -26,  -36
797126, 1710334028, "2024/3/13 12:47:8",  7,  -60,  1005,  0,  0,  -1,  -10,  -28,  -36
797326, 1710334028, "2024/3/13 12:47:8",  4,  -61,  1002,  0,  0,  -1,  -11,  -27,  -36
797526, 1710334029, "2024/3/13 12:47:9",  7,  -59,  1002,  0,  0,  -1,  -12,  -26,  -37
797726, 1710334029, "2024/3/13 12:47:9",  5,  -56,  1003,  0,  0,  -1,  -12,  -27,  -36
797926, 1710334029, "2024/3/13 12:47:9",  6,  -56,  1001,  0,  -1,  -1,  -11,  -25,  -36
798126, 1710334029, "2024/3/13 12:47:9",  -6,  -61,  1009,  0,  -1,  0,  -11,  -26,  -35
798326, 1710334029, "2024/3/13 12:47:9",  4,  -57,  1002,  0,  -1,  -1,  -11,  -26,  -36
798526, 1710334030, "2024/3/13 12:47:10",  7,  -61,  1003,  0,  0,  -1,  -10,  -25,  -36
798726, 1710334030, "2024/3/13 12:47:10",  15,  -57,  1008,  0,  0,  -1,  -11,  -27,  -34
798926, 1710334030, "2024/3/13 12:47:10",  11,  -46,  1000,  0,  0,  -1,  -11,  -25,  -36
799126, 1710334030, "2024/3/13 12:47:10",  15,  -55,  1005,  0,  0,  -1,  -11,  -27,  -36
799326, 1710334030, "2024/3/13 12:47:10",  10,  -54,  999,  0,  0,  0,  -11,  -27,  -36
799526, 1710334031, "2024/3/13 12:47:11",  5,  -62,  1007,  0,  0,  -1,  -10,  -25,  -35
799726, 1710334031, "2024/3/13 12:47:11",  6,  -55,  1003,  0,  0,  -1,  -11,  -25,  -36
799926, 1710334031, "2024/3/13 12:47:11",  7,  -60,  1006,  0,  0,  -1,  -11,  -26,  -36
800126, 1710334031, "2024/3/13 12:47:11",  5,  -62,  1003,  0,  0,  -1,  -10,  -27,  -37
800326, 1710334031, "2024/3/13 12:47:11",  0,  -52,  1001,  0,  0,  -1,  -11,  -27,  -36
800526, 1710334032, "2024/3/13 12:47:12",  11,  -60,  1004,  0,  0,  -1,  -10,  -24,  -36
800726, 1710334032, "2024/3/13 12:47:12",  8,  -59,  1002,  0,  -1,  -1,  -12,  -27,  -36
800926, 1710334032, "2024/3/13 12:47:12",  4,  -63,  1004,  0,  0,  -1,  -10,  -27,  -36
801126, 1710334032, "2024/3/13 12:47:12",  6,  -60,  1005,  0,  0,  -1,  -11,  -26,  -35
801326, 1710334032, "2024/3/13 12:47:12",  5,  -59,  1006,  0,  0,  0,  -10,  -26,  -36
801526, 1710334033, "2024/3/13 12:47:13",  6,  -56,  1001,  0,  0,  -1,  -11,  -26,  -37
801726, 1710334033, "2024/3/13 12:47:13",  3,  -60,  1004,  0,  0,  0,  -10,  -26,  -36
801926, 1710334033, "2024/3/13 12:47:13",  5,  -60,  1005,  0,  0,  0,  -12,  -25,  -37
802126, 1710334033, "2024/3/13 12:47:13",  4,  -56,  1003,  0,  0,  -1,  -12,  -26,  -37
802326, 1710334033, "2024/3/13 12:47:13",  0,  -52,  1000,  0,  0,  -1,  -11,  -26,  -36
802526, 1710334034, "2024/3/13 12:47:14",  2,  -58,  1005,  0,  0,  -1,  -11,  -26,  -36
802726, 1710334034, "2024/3/13 12:47:14",  8,  -57,  1005,  0,  0,  0,  -11,  -26,  -37
802926, 1710334034, "2024/3/13 12:47:14",  2,  -53,  1003,  0,  0,  -1,  -11,  -25,  -37
803126, 1710334034, "2024/3/13 12:47:14",  8,  -53,  1002,  0,  0,  -1,  -12,  -26,  -38
803326, 1710334034, "2024/3/13 12:47:14",  6,  -49,  1002,  0,  0,  0,  -11,  -27,  -36
803526, 1710334035, "2024/3/13 12:47:15",  7,  -56,  1004,  0,  0,  -1,  -11,  -27,  -37
803726, 1710334035, "2024/3/13 12:47:15",  6,  -62,  1000,  0,  0,  -1,  -11,  -27,  -35
803926, 1710334035, "2024/3/13 12:47:15",  7,  -59,  1009,  0,  0,  0,  -13,  -26,  -36
804126, 1710334035, "2024/3/13 12:47:15",  0,  -61,  1005,  0,  -1,  -1,  -11,  -26,  -34
804326, 1710334035, "2024/3/13 12:47:15",  8,  -58,  1002,  0,  0,  -1,  -10,  -25,  -35
804526, 1710334036, "2024/3/13 12:47:16",  6,  -59,  1004,  0,  0,  0,  -11,  -26,  -35
804726, 1710334036, "2024/3/13 12:47:16",  4,  -59,  1006,  0,  0,  -1,  -11,  -25,  -35
804926, 1710334036, "2024/3/13 12:47:16",  3,  -60,  1000,  0,  -1,  0,  -10,  -26,  -36
805126, 1710334036, "2024/3/13 12:47:16",  2,  -60,  1004,  0,  0,  -1,  -9,  -27,  -36
805326, 1710334036, "2024/3/13 12:47:16",  12,  -55,  1003,  0,  0,  -1,  -11,  -25,  -36
805526, 1710334037, "2024/3/13 12:47:17",  8,  -60,  1004,  0,  0,  -1,  -10,  -25,  -35
805726, 1710334037, "2024/3/13 12:47:17",  9,  -55,  1005,  0,  0,  0,  -11,  -27,  -36
805926, 1710334037, "2024/3/13 12:47:17",  10,  -57,  1005,  0,  0,  -1,  -12,  -27,  -36
806126, 1710334037, "2024/3/13 12:47:17",  7,  -56,  1001,  0,  0,  -1,  -11,  -27,  -38
806326, 1710334037, "2024/3/13 12:47:17",  4,  -58,  1002,  0,  0,  -1,  -11,  -24,  -36
806526, 1710334038, "2024/3/13 12:47:18",  3,  -53,  1004,  0,  0,  -1,  -12,  -25,  -37
806726, 1710334038, "2024/3/13 12:47:18",  8,  -57,  1007,  0,  0,  -1,  -11,  -25,  -35
806926, 1710334038, "2024/3/13 12:47:18",  7,  -60,  1003,  0,  0,  0,  -10,  -26,  -36
807126, 1710334038, "2024/3/13 12:47:18",  5,  -55,  1005,  0,  0,  0,  -10,  -26,  -36
807326, 1710334038, "2024/3/13 12:47:18",  5,  -54,  1004,  0,  0,  0,  -12,  -29,  -37
807526, 1710334039, "2024/3/13 12:47:19",  6,  -58,  1003,  0,  -1,  -1,  -12,  -26,  -36
807726, 1710334039, "2024/3/13 12:47:19",  3,  -61,  1006,  0,  0,  -1,  -12,  -27,  -35
807926, 1710334039, "2024/3/13 12:47:19",  3,  -54,  1006,  0,  0,  -1,  -11,  -25,  -36
808126, 1710334039, "2024/3/13 12:47:19",  1,  -58,  1007,  0,  0,  0,  -9,  -25,  -37
808326, 1710334039, "2024/3/13 12:47:19",  5,  -64,  1002,  0,  0,  -1,  -11,  -25,  -36
808526, 1710334040, "2024/3/13 12:47:20",  7,  -54,  1005,  0,  0,  -1,  -12,  -26,  -36
808726, 1710334040, "2024/3/13 12:47:20",  10,  -59,  1004,  0,  0,  -1,  -11,  -26,  -34
808926, 1710334040, "2024/3/13 12:47:20",  4,  -57,  1003,  0,  0,  -1,  -12,  -27,  -36
809126, 1710334040, "2024/3/13 12:47:20",  6,  -53,  1004,  0,  0,  -1,  -12,  -26,  -37
809326, 1710334040, "2024/3/13 12:47:20",  5,  -58,  1002,  0,  0,  -1,  -12,  -25,  -36
809526, 1710334041, "2024/3/13 12:47:21",  8,  -53,  1005,  0,  0,  0,  -11,  -26,  -37
809726, 1710334041, "2024/3/13 12:47:21",  2,  -57,  1004,  0,  0,  0,  -12,  -26,  -36
809926, 1710334041, "2024/3/13 12:47:21",  2,  -60,  1005,  0,  0,  -1,  -11,  -27,  -35
810126, 1710334041, "2024/3/13 12:47:21",  4,  -59,  1004,  0,  0,  0,  -11,  -26,  -36
810326, 1710334041, "2024/3/13 12:47:21",  6,  -58,  1005,  0,  0,  0,  -12,  -27,  -36
810526, 1710334042, "2024/3/13 12:47:22",  4,  -56,  1005,  0,  -1,  -1,  -12,  -25,  -36
810726, 1710334042, "2024/3/13 12:47:22",  3,  -55,  1007,  0,  0,  -1,  -11,  -26,  -35
810926, 1710334042, "2024/3/13 12:47:22",  1,  -63,  1005,  0,  0,  0,  -11,  -26,  -37
811126, 1710334042, "2024/3/13 12:47:22",  11,  -58,  1005,  0,  -1,  0,  -10,  -26,  -36
811326, 1710334042, "2024/3/13 12:47:22",  3,  -58,  1008,  0,  0,  -1,  -11,  -25,  -34
811526, 1710334043, "2024/3/13 12:47:23",  0,  -61,  1002,  0,  0,  -1,  -12,  -26,  -36
811726, 1710334043, "2024/3/13 12:47:23",  3,  -53,  1003,  0,  0,  0,  -11,  -26,  -35
811926, 1710334043, "2024/3/13 12:47:23",  5,  -62,  1007,  0,  0,  -1,  -10,  -26,  -35
812126, 1710334043, "2024/3/13 12:47:23",  5,  -59,  1006,  0,  0,  0,  -10,  -25,  -35
812326, 1710334043, "2024/3/13 12:47:23",  5,  -53,  1005,  0,  0,  0,  -10,  -26,  -36
812526, 1710334044, "2024/3/13 12:47:24",  4,  -57,  1006,  0,  0,  -1,  -11,  -25,  -36
812726, 1710334044, "2024/3/13 12:47:24",  9,  -58,  1006,  0,  0,  -1,  -10,  -27,  -37
812926, 1710334044, "2024/3/13 12:47:24",  5,  -64,  1005,  0,  0,  -1,  -10,  -26,  -36
813126, 1710334044, "2024/3/13 12:47:24",  11,  -56,  1004,  0,  0,  -1,  -11,  -26,  -36
813326, 1710334044, "2024/3/13 12:47:24",  10,  -57,  1004,  0,  0,  -1,  -11,  -27,  -36
813526, 1710334045, "2024/3/13 12:47:25",  6,  -60,  1006,  0,  0,  -1,  -12,  -25,  -36
813726, 1710334045, "2024/3/13 12:47:25",  2,  -63,  1003,  0,  0,  -1,  -9,  -27,  -36
813926, 1710334045, "2024/3/13 12:47:25",  5,  -58,  1006,  0,  -1,  -1,  -10,  -26,  -36
814126, 1710334045, "2024/3/13 12:47:25",  4,  -56,  1003,  0,  -1,  0,  -10,  -27,  -36
814326, 1710334045, "2024/3/13 12:47:25",  3,  -57,  1004,  0,  0,  -1,  -10,  -25,  -35
814526, 1710334046, "2024/3/13 12:47:26",  3,  -61,  1007,  0,  0,  0,  -10,  -28,  -34
814726, 1710334046, "2024/3/13 12:47:26",  3,  -58,  1006,  0,  0,  0,  -11,  -27,  -36
814926, 1710334046, "2024/3/13 12:47:26",  7,  -55,  1002,  0,  0,  -1,  -12,  -26,  -35
815126, 1710334046, "2024/3/13 12:47:26",  6,  -55,  1002,  0,  0,  0,  -13,  -27,  -35
815326, 1710334046, "2024/3/13 12:47:26",  4,  -55,  1004,  0,  0,  0,  -11,  -27,  -37
815526, 1710334047, "2024/3/13 12:47:27",  5,  -53,  1007,  0,  0,  0,  -11,  -27,  -36
815726, 1710334047, "2024/3/13 12:47:27",  0,  -52,  999,  0,  0,  -1,  -12,  -27,  -37
815926, 1710334047, "2024/3/13 12:47:27",  3,  -58,  1011,  0,  0,  -1,  -11,  -26,  -37
816126, 1710334047, "2024/3/13 12:47:27",  6,  -57,  1001,  0,  -1,  -1,  -10,  -26,  -36
816326, 1710334047, "2024/3/13 12:47:27",  8,  -59,  1002,  0,  0,  0,  -13,  -26,  -34
816526, 1710334048, "2024/3/13 12:47:28",  5,  -56,  1005,  0,  0,  0,  -10,  -25,  -36
816726, 1710334048, "2024/3/13 12:47:28",  3,  -62,  1008,  0,  -1,  -1,  -10,  -26,  -36
816926, 1710334048, "2024/3/13 12:47:28",  5,  -61,  1004,  0,  0,  0,  -12,  -26,  -36
817126, 1710334048, "2024/3/13 12:47:28",  7,  -57,  1002,  0,  0,  -1,  -11,  -27,  -36
817326, 1710334048, "2024/3/13 12:47:28",  2,  -62,  1001,  0,  0,  -1,  -10,  -26,  -35
817526, 1710334049, "2024/3/13 12:47:29",  2,  -57,  1003,  0,  0,  -1,  -12,  -25,  -36
817726, 1710334049, "2024/3/13 12:47:29",  2,  -55,  1005,  0,  -1,  -1,  -10,  -26,  -36
817926, 1710334049, "2024/3/13 12:47:29",  7,  -59,  1004,  0,  0,  -1,  -10,  -25,  -36
818126, 1710334049, "2024/3/13 12:47:29",  7,  -52,  1004,  0,  0,  -1,  -10,  -25,  -36
818326, 1710334049, "2024/3/13 12:47:29",  4,  -56,  1002,  0,  0,  -1,  -10,  -26,  -36
818526, 1710334050, "2024/3/13 12:47:30",  3,  -57,  1001,  0,  0,  -1,  -12,  -27,  -35
818726, 1710334050, "2024/3/13 12:47:30",  2,  -58,  1010,  0,  0,  -1,  -10,  -25,  -36
818926, 1710334050, "2024/3/13 12:47:30",  1,  -56,  1004,  0,  -1,  -1,  -12,  -25,  -37
819126, 1710334050, "2024/3/13 12:47:30",  6,  -50,  1004,  1,  0,  0,  -11,  -27,  -37
819326, 1710334050, "2024/3/13 12:47:30",  1,  -57,  1012,  0,  0,  0,  -12,  -25,  -37
819526, 1710334051, "2024/3/13 12:47:31",  1,  -52,  1006,  0,  0,  0,  -13,  -25,  -37
819726, 1710334051, "2024/3/13 12:47:31",  5,  -60,  1002,  0,  0,  0,  -11,  -25,  -37
819926, 1710334051, "2024/3/13 12:47:31",  4,  -56,  1008,  0,  0,  0,  -11,  -26,  -37
820126, 1710334051, "2024/3/13 12:47:31",  4,  -62,  1002,  0,  0,  0,  -10,  -25,  -35
820326, 1710334051, "2024/3/13 12:47:31",  6,  -57,  1003,  0,  0,  0,  -9,  -27,  -35
820526, 1710334052, "2024/3/13 12:47:32",  1,  -61,  1004,  0,  -1,  0,  -12,  -28,  -37
820726, 1710334052, "2024/3/13 12:47:32",  0,  -65,  1004,  1,  0,  0,  -10,  -27,  -35
820926, 1710334052, "2024/3/13 12:47:32",  0,  -51,  1006,  0,  0,  0,  -11,  -27,  -36
821126, 1710334052, "2024/3/13 12:47:32",  1,  -53,  1005,  0,  0,  -1,  -10,  -26,  -37
821326, 1710334052, "2024/3/13 12:47:32",  6,  -57,  1004,  0,  0,  -1,  -10,  -25,  -36
821526, 1710334053, "2024/3/13 12:47:33",  0,  -53,  1004,  0,  0,  -1,  -11,  -25,  -36
821726, 1710334053, "2024/3/13 12:47:33",  -2,  -58,  1003,  0,  0,  -1,  -11,  -26,  -36
821926, 1710334053, "2024/3/13 12:47:33",  8,  -58,  1003,  0,  0,  0,  -11,  -25,  -36
822126, 1710334053, "2024/3/13 12:47:33",  4,  -56,  1003,  0,  0,  -1,  -11,  -26,  -35
822326, 1710334053, "2024/3/13 12:47:33",  4,  -57,  1005,  0,  0,  -1,  -12,  -27,  -36
822526, 1710334054, "2024/3/13 12:47:34",  2,  -62,  1001,  0,  0,  0,  -10,  -27,  -37
822726, 1710334054, "2024/3/13 12:47:34",  6,  -61,  1005,  0,  0,  -1,  -11,  -26,  -36
822926, 1710334054, "2024/3/13 12:47:34",  2,  -60,  1004,  0,  0,  0,  -11,  -27,  -36
823126, 1710334054, "2024/3/13 12:47:34",  2,  -58,  1004,  0,  0,  0,  -10,  -28,  -36
823326, 1710334054, "2024/3/13 12:47:34",  0,  -60,  1004,  0,  0,  -1,  -12,  -27,  -37
823526, 1710334055, "2024/3/13 12:47:35",  6,  -58,  1003,  0,  0,  -1,  -11,  -26,  -36
823726, 1710334055, "2024/3/13 12:47:35",  4,  -59,  1000,  0,  0,  -1,  -11,  -24,  -36
823926, 1710334055, "2024/3/13 12:47:35",  9,  -57,  1003,  0,  0,  0,  -11,  -27,  -34
824126, 1710334055, "2024/3/13 12:47:35",  6,  -54,  1002,  0,  0,  0,  -10,  -25,  -36
824326, 1710334055, "2024/3/13 12:47:35",  3,  -48,  1004,  0,  0,  0,  -12,  -25,  -36
824526, 1710334056, "2024/3/13 12:47:36",  5,  -52,  1005,  0,  0,  -1,  -11,  -27,  -35
824726, 1710334056, "2024/3/13 12:47:36",  4,  -54,  1005,  0,  0,  0,  -10,  -27,  -37
824926, 1710334056, "2024/3/13 12:47:36",  -1,  -57,  1004,  0,  0,  -1,  -12,  -26,  -34
825126, 1710334056, "2024/3/13 12:47:36",  5,  -59,  1005,  0,  0,  -1,  -12,  -26,  -36
825326, 1710334056, "2024/3/13 12:47:36",  3,  -54,  1003,  0,  0,  -1,  -11,  -25,  -37
825526, 1710334057, "2024/3/13 12:47:37",  6,  -61,  1004,  0,  -1,  -1,  -11,  -27,  -36
825726, 1710334057, "2024/3/13 12:47:37",  5,  -65,  1006,  0,  0,  0,  -11,  -26,  -37
825926, 1710334057, "2024/3/13 12:47:37",  3,  -53,  1006,  0,  0,  -1,  -11,  -27,  -36
826126, 1710334057, "2024/3/13 12:47:37",  4,  -61,  1002,  0,  0,  -1,  -12,  -26,  -34
826326, 1710334057, "2024/3/13 12:47:37",  11,  -59,  1004,  0,  0,  -1,  -12,  -26,  -35
826526, 1710334058, "2024/3/13 12:47:38",  4,  -58,  1004,  0,  0,  -1,  -10,  -24,  -36
826726, 1710334058, "2024/3/13 12:47:38",  7,  -59,  1003,  0,  0,  -1,  -11,  -26,  -36
826926, 1710334058, "2024/3/13 12:47:38",  2,  -52,  1003,  0,  0,  0,  -11,  -26,  -35
827126, 1710334058, "2024/3/13 12:47:38",  3,  -55,  1007,  0,  0,  -1,  -11,  -25,  -35
827326, 1710334058, "2024/3/13 12:47:38",  4,  -53,  1006,  0,  0,  -1,  -11,  -27,  -35
827526, 1710334059, "2024/3/13 12:47:39",  5,  -59,  1006,  0,  -1,  0,  -10,  -26,  -35
827726, 1710334059, "2024/3/13 12:47:39",  0,  -55,  1005,  0,  0,  -1,  -11,  -26,  -36
827926, 1710334059, "2024/3/13 12:47:39",  6,  -61,  1004,  0,  0,  -1,  -11,  -26,  -36
828126, 1710334059, "2024/3/13 12:47:39",  5,  -58,  1006,  0,  0,  -1,  -12,  -26,  -36
828326, 1710334059, "2024/3/13 12:47:39",  5,  -56,  1002,  0,  0,  0,  -11,  -25,  -37
828526, 1710334060, "2024/3/13 12:47:40",  7,  -56,  1003,  0,  -1,  -1,  -11,  -26,  -35
828726, 1710334060, "2024/3/13 12:47:40",  3,  -59,  1001,  0,  0,  0,  -10,  -27,  -35
828926, 1710334060, "2024/3/13 12:47:40",  8,  -57,  1003,  0,  0,  -1,  -10,  -26,  -36
829126, 1710334060, "2024/3/13 12:47:40",  4,  -57,  1002,  0,  0,  -1,  -12,  -26,  -36
829326, 1710334060, "2024/3/13 12:47:40",  4,  -60,  1002,  0,  0,  -1,  -11,  -27,  -37
829526, 1710334061, "2024/3/13 12:47:41",  5,  -59,  1005,  0,  0,  0,  -11,  -26,  -35
829726, 1710334061, "2024/3/13 12:47:41",  0,  -61,  1005,  0,  0,  -1,  -10,  -26,  -36
829926, 1710334061, "2024/3/13 12:47:41",  3,  -54,  1004,  0,  0,  -1,  -13,  -25,  -37
830126, 1710334061, "2024/3/13 12:47:41",  10,  -57,  1000,  0,  0,  -1,  -12,  -27,  -35
830326, 1710334061, "2024/3/13 12:47:41",  8,  -53,  1001,  0,  -1,  -1,  -9,  -27,  -36
830526, 1710334062, "2024/3/13 12:47:42",  0,  -55,  1007,  0,  0,  -1,  -11,  -27,  -36
830726, 1710334062, "2024/3/13 12:47:42",  3,  -57,  1005,  0,  0,  0,  -10,  -27,  -37
830926, 1710334062, "2024/3/13 12:47:42",  6,  -57,  1002,  0,  0,  -1,  -11,  -24,  -35
831126, 1710334062, "2024/3/13 12:47:42",  6,  -57,  1002,  0,  0,  -1,  -11,  -26,  -35
831326, 1710334062, "2024/3/13 12:47:42",  3,  -58,  1008,  0,  0,  -1,  -12,  -25,  -36
831526, 1710334063, "2024/3/13 12:47:43",  7,  -64,  1004,  0,  0,  -1,  -11,  -25,  -38
831726, 1710334063, "2024/3/13 12:47:43",  7,  -51,  1002,  0,  0,  -1,  -11,  -25,  -35
831926, 1710334063, "2024/3/13 12:47:43",  0,  -57,  1006,  0,  -1,  0,  -12,  -27,  -36
832126, 1710334063, "2024/3/13 12:47:43",  5,  -60,  1004,  0,  0,  -1,  -11,  -27,  -35
832326, 1710334063, "2024/3/13 12:47:43",  5,  -61,  1001,  0,  0,  -1,  -11,  -27,  -36
832526, 1710334064, "2024/3/13 12:47:44",  3,  -53,  1004,  0,  0,  0,  -11,  -26,  -36
832726, 1710334064, "2024/3/13 12:47:44",  3,  -64,  1005,  0,  0,  -1,  -11,  -28,  -36
832926, 1710334064, "2024/3/13 12:47:44",  3,  -58,  1005,  0,  0,  -1,  -11,  -25,  -36
833126, 1710334064, "2024/3/13 12:47:44",  4,  -56,  1003,  0,  0,  -1,  -10,  -25,  -35
833326, 1710334064, "2024/3/13 12:47:44",  4,  -61,  1003,  0,  0,  0,  -11,  -27,  -36
833526, 1710334065, "2024/3/13 12:47:45",  1,  -57,  1006,  0,  0,  -1,  -12,  -26,  -37
833726, 1710334065, "2024/3/13 12:47:45",  5,  -59,  1005,  0,  0,  0,  -13,  -27,  -35
833926, 1710334065, "2024/3/13 12:47:45",  5,  -60,  1003,  0,  0,  -1,  -11,  -26,  -37
834126, 1710334065, "2024/3/13 12:47:45",  6,  -60,  1010,  0,  0,  -1,  -11,  -27,  -37
834326, 1710334065, "2024/3/13 12:47:45",  9,  -55,  1008,  0,  0,  0,  -12,  -27,  -36
834526, 1710334066, "2024/3/13 12:47:46",  3,  -61,  1007,  0,  0,  -1,  -11,  -27,  -36
834726, 1710334066, "2024/3/13 12:47:46",  5,  -53,  1005,  0,  0,  0,  -10,  -26,  -37
834926, 1710334066, "2024/3/13 12:47:46",  3,  -56,  1001,  0,  0,  0,  -11,  -26,  -36
835126, 1710334066, "2024/3/13 12:47:46",  3,  -59,  1006,  0,  0,  0,  -12,  -25,  -36
835326, 1710334066, "2024/3/13 12:47:46",  9,  -59,  1009,  0,  -1,  -1,  -12,  -25,  -36
835526, 1710334067, "2024/3/13 12:47:47",  9,  -56,  1002,  0,  0,  0,  -11,  -26,  -36
835726, 1710334067, "2024/3/13 12:47:47",  5,  -54,  1003,  0,  0,  -1,  -10,  -27,  -35
835926, 1710334067, "2024/3/13 12:47:47",  4,  -57,  1003,  0,  0,  -1,  -11,  -26,  -36
836126, 1710334067, "2024/3/13 12:47:47",  6,  -64,  1005,  0,  0,  -1,  -11,  -25,  -35
836326, 1710334067, "2024/3/13 12:47:47",  7,  -62,  1004,  0,  0,  0,  -11,  -26,  -37
836526, 1710334068, "2024/3/13 12:47:48",  3,  -57,  1002,  0,  0,  0,  -11,  -26,  -36
836726, 1710334068, "2024/3/13 12:47:48",  3,  -60,  1004,  0,  0,  0,  -10,  -27,  -36
836926, 1710334068, "2024/3/13 12:47:48",  3,  -55,  1006,  0,  0,  -1,  -11,  -26,  -35
837126, 1710334068, "2024/3/13 12:47:48",  2,  -58,  1003,  0,  0,  -1,  -10,  -26,  -36
837326, 1710334068, "2024/3/13 12:47:48",  -2,  -59,  1002,  0,  0,  -1,  -11,  -26,  -36
837526, 1710334069, "2024/3/13 12:47:49",  5,  -63,  1000,  0,  0,  -1,  -12,  -27,  -37
837726, 1710334069, "2024/3/13 12:47:49",  3,  -50,  1002,  0,  0,  0,  -11,  -27,  -37
837926, 1710334069, "2024/3/13 12:47:49",  7,  -60,  1002,  0,  0,  0,  -11,  -25,  -36
838126, 1710334069, "2024/3/13 12:47:49",  4,  -57,  1005,  0,  -1,  0,  -12,  -24,  -36
838326, 1710334069, "2024/3/13 12:47:49",  4,  -52,  1007,  0,  0,  0,  -12,  -27,  -36
838526, 1710334070, "2024/3/13 12:47:50",  9,  -53,  1006,  0,  0,  -1,  -11,  -25,  -36
838726, 1710334070, "2024/3/13 12:47:50",  6,  -56,  1005,  0,  0,  0,  -10,  -25,  -35
838926, 1710334070, "2024/3/13 12:47:50",  7,  -51,  1005,  0,  0,  -1,  -12,  -25,  -36
839126, 1710334070, "2024/3/13 12:47:50",  4,  -58,  1003,  0,  0,  -1,  -11,  -25,  -37
839326, 1710334070, "2024/3/13 12:47:50",  7,  -56,  1006,  0,  -1,  -1,  -11,  -27,  -36
839526, 1710334071, "2024/3/13 12:47:51",  6,  -56,  1005,  0,  0,  0,  -12,  -26,  -36
839726, 1710334071, "2024/3/13 12:47:51",  1,  -59,  1006,  0,  0,  -1,  -10,  -26,  -35
839926, 1710334071, "2024/3/13 12:47:51",  1,  -57,  1009,  0,  0,  -1,  -10,  -26,  -36
840126, 1710334071, "2024/3/13 12:47:51",  7,  -58,  1002,  0,  0,  -1,  -11,  -24,  -35
840326, 1710334071, "2024/3/13 12:47:51",  5,  -55,  1003,  0,  0,  -1,  -11,  -26,  -36
840526, 1710334072, "2024/3/13 12:47:52",  8,  -58,  1000,  0,  0,  -1,  -12,  -25,  -37
840726, 1710334072, "2024/3/13 12:47:52",  10,  -57,  1007,  0,  0,  -1,  -11,  -25,  -36
840926, 1710334072, "2024/3/13 12:47:52",  5,  -57,  1004,  0,  0,  0,  -13,  -26,  -37
841126, 1710334072, "2024/3/13 12:47:52",  5,  -57,  1001,  0,  0,  0,  -12,  -27,  -37
841326, 1710334072, "2024/3/13 12:47:52",  8,  -59,  1003,  0,  0,  -1,  -10,  -26,  -37
841526, 1710334073, "2024/3/13 12:47:53",  4,  -59,  1003,  0,  0,  -1,  -11,  -25,  -36
841726, 1710334073, "2024/3/13 12:47:53",  1,  -62,  1001,  0,  -1,  0,  -12,  -26,  -37
841926, 1710334073, "2024/3/13 12:47:53",  5,  -59,  1003,  0,  0,  0,  -10,  -26,  -36
842126, 1710334073, "2024/3/13 12:47:53",  6,  -58,  1004,  0,  0,  0,  -10,  -26,  -36
842326, 1710334073, "2024/3/13 12:47:53",  3,  -56,  1006,  0,  0,  -1,  -11,  -26,  -36
842526, 1710334074, "2024/3/13 12:47:54",  8,  -53,  1001,  0,  0,  0,  -11,  -27,  -36
842726, 1710334074, "2024/3/13 12:47:54",  4,  -50,  1004,  0,  0,  0,  -11,  -27,  -36
842926, 1710334074, "2024/3/13 12:47:54",  8,  -50,  1006,  0,  0,  -1,  -11,  -26,  -38
843126, 1710334074, "2024/3/13 12:47:54",  1,  -51,  1004,  0,  0,  -1,  -12,  -26,  -36
843326, 1710334074, "2024/3/13 12:47:54",  6,  -58,  1007,  0,  -1,  0,  -11,  -27,  -38
843526, 1710334075, "2024/3/13 12:47:55",  5,  -51,  1004,  0,  0,  -1,  -11,  -25,  -37
843726, 1710334075, "2024/3/13 12:47:55",  6,  -60,  1000,  0,  0,  -1,  -11,  -26,  -36
843926, 1710334075, "2024/3/13 12:47:55",  0,  -58,  1006,  0,  0,  -1,  -11,  -24,  -36
844126, 1710334075, "2024/3/13 12:47:55",  3,  -52,  1003,  0,  0,  0,  -12,  -26,  -34
844326, 1710334075, "2024/3/13 12:47:55",  9,  -60,  1006,  0,  0,  -1,  -11,  -26,  -36
844526, 1710334076, "2024/3/13 12:47:56",  3,  -57,  1003,  0,  0,  -1,  -10,  -26,  -36
844726, 1710334076, "2024/3/13 12:47:56",  2,  -59,  1006,  0,  0,  0,  -10,  -27,  -36
844926, 1710334076, "2024/3/13 12:47:56",  7,  -56,  1004,  0,  -1,  0,  -11,  -26,  -37
845126, 1710334076, "2024/3/13 12:47:56",  2,  -55,  1005,  0,  0,  -1,  -11,  -26,  -35
845326, 1710334076, "2024/3/13 12:47:56",  6,  -61,  1003,  0,  0,  -1,  -10,  -24,  -35
845526, 1710334077, "2024/3/13 12:47:57",  1,  -60,  1002,  0,  0,  -1,  -9,  -27,  -35
845726, 1710334077, "2024/3/13 12:47:57",  3,  -56,  1006,  0,  0,  0,  -11,  -26,  -36
845926, 1710334077, "2024/3/13 12:47:57",  8,  -57,  1005,  0,  0,  -1,  -9,  -25,  -35
846126, 1710334077, "2024/3/13 12:47:57",  4,  -55,  1000,  0,  0,  -1,  -11,  -25,  -36
846326, 1710334077, "2024/3/13 12:47:57",  3,  -60,  1004,  0,  0,  -1,  -9,  -27,  -37
846526, 1710334078, "2024/3/13 12:47:58",  6,  -58,  1004,  0,  0,  0,  -12,  -24,  -36
846726, 1710334078, "2024/3/13 12:47:58",  2,  -56,  1003,  0,  0,  -1,  -11,  -27,  -35
846926, 1710334078, "2024/3/13 12:47:58",  4,  -58,  999,  0,  0,  -1,  -11,  -25,  -36
847126, 1710334078, "2024/3/13 12:47:58",  1,  -57,  1006,  0,  0,  0,  -9,  -26,  -36
847326, 1710334078, "2024/3/13 12:47:58",  4,  -56,  1005,  0,  -1,  -1,  -11,  -25,  -36
847526, 1710334079, "2024/3/13 12:47:59",  8,  -56,  1001,  0,  0,  0,  -12,  -26,  -36
847726, 1710334079, "2024/3/13 12:47:59",  0,  -56,  1005,  0,  0,  -1,  -11,  -25,  -36
847926, 1710334079, "2024/3/13 12:47:59",  6,  -58,  1001,  0,  0,  0,  -11,  -25,  -36
848126, 1710334079, "2024/3/13 12:47:59",  6,  -61,  1003,  0,  0,  -1,  -11,  -25,  -36
848326, 1710334079, "2024/3/13 12:47:59",  3,  -57,  1002,  0,  0,  -1,  -11,  -24,  -36
848526, 1710334080, "2024/3/13 12:48:0",  6,  -64,  1007,  0,  0,  0,  -12,  -26,  -35
848726, 1710334080, "2024/3/13 12:48:0",  6,  -56,  1008,  0,  0,  0,  -11,  -26,  -36
848926, 1710334080, "2024/3/13 12:48:0",  8,  -59,  1005,  0,  0,  -1,  -11,  -26,  -37
849126, 1710334080, "2024/3/13 12:48:0",  5,  -57,  1002,  0,  -1,  -1,  -11,  -26,  -35
849326, 1710334080, "2024/3/13 12:48:0",  5,  -59,  1001,  0,  0,  -1,  -11,  -26,  -38
849526, 1710334081, "2024/3/13 12:48:1",  4,  -58,  1004,  0,  0,  -1,  -11,  -25,  -37
849726, 1710334081, "2024/3/13 12:48:1",  2,  -56,  1003,  0,  0,  0,  -11,  -26,  -35
849926, 1710334081, "2024/3/13 12:48:1",  6,  -62,  1006,  0,  -1,  -1,  -11,  -26,  -35
850126, 1710334081, "2024/3/13 12:48:1",  7,  -64,  1002,  0,  0,  0,  -13,  -28,  -36
850326, 1710334081, "2024/3/13 12:48:1",  4,  -58,  1003,  0,  -1,  -1,  -10,  -26,  -36
850526, 1710334082, "2024/3/13 12:48:2",  5,  -56,  1003,  0,  0,  -1,  -11,  -26,  -36
850726, 1710334082, "2024/3/13 12:48:2",  5,  -58,  1004,  0,  0,  0,  -10,  -25,  -36
850926, 1710334082, "2024/3/13 12:48:2",  4,  -58,  1007,  0,  0,  0,  -12,  -27,  -36
851126, 1710334082, "2024/3/13 12:48:2",  7,  -54,  999,  0,  0,  0,  -11,  -26,  -36
851326, 1710334082, "2024/3/13 12:48:2",  4,  -54,  1006,  0,  0,  -1,  -10,  -28,  -33
851526, 1710334083, "2024/3/13 12:48:3",  4,  -55,  1005,  0,  0,  -1,  -13,  -26,  -36
851726, 1710334083, "2024/3/13 12:48:3",  3,  -58,  1001,  0,  0,  0,  -13,  -26,  -37
851926, 1710334083, "2024/3/13 12:48:3",  2,  -62,  1006,  0,  0,  -1,  -10,  -25,  -34
852126, 1710334083, "2024/3/13 12:48:3",  5,  -59,  1004,  0,  0,  -1,  -11,  -28,  -37
852326, 1710334083, "2024/3/13 12:48:3",  4,  -60,  1003,  0,  0,  -1,  -11,  -27,  -34
852526, 1710334084, "2024/3/13 12:48:4",  1,  -56,  1003,  0,  0,  -1,  -11,  -26,  -34
852726, 1710334084, "2024/3/13 12:48:4",  3,  -59,  1005,  0,  0,  0,  -10,  -25,  -35
852926, 1710334084, "2024/3/13 12:48:4",  10,  -56,  1007,  0,  -1,  0,  -11,  -27,  -34
853126, 1710334084, "2024/3/13 12:48:4",  6,  -56,  1003,  0,  0,  -1,  -10,  -24,  -31
853326, 1710334084, "2024/3/13 12:48:4",  10,  -53,  1008,  0,  0,  -1,  -9,  -25,  -33
853526, 1710334085, "2024/3/13 12:48:5",  6,  -58,  1005,  0,  0,  -1,  -10,  -25,  -31
853726, 1710334085, "2024/3/13 12:48:5",  4,  -60,  1005,  0,  0,  -1,  -9,  -25,  -30
853926, 1710334085, "2024/3/13 12:48:5",  3,  -62,  1004,  0,  0,  -1,  -8,  -24,  -32
854126, 1710334085, "2024/3/13 12:48:5",  1,  -59,  1004,  0,  0,  -1,  -10,  -25,  -30
854326, 1710334085, "2024/3/13 12:48:5",  6,  -62,  1004,  0,  -1,  -1,  -10,  -25,  -32
854526, 1710334086, "2024/3/13 12:48:6",  1,  -58,  1000,  0,  0,  0,  -10,  -25,  -31
854726, 1710334086, "2024/3/13 12:48:6",  7,  -59,  1005,  0,  0,  0,  -7,  -26,  -31
854926, 1710334086, "2024/3/13 12:48:6",  10,  -54,  1007,  0,  0,  0,  -10,  -26,  -31
855126, 1710334086, "2024/3/13 12:48:6",  0,  -61,  1000,  0,  0,  0,  -9,  -25,  -32
855326, 1710334086, "2024/3/13 12:48:6",  3,  -53,  1004,  0,  0,  0,  -8,  -25,  -31
855526, 1710334087, "2024/3/13 12:48:7",  6,  -65,  1009,  0,  0,  0,  -9,  -25,  -30
855726, 1710334087, "2024/3/13 12:48:7",  -2,  -58,  1004,  0,  0,  -1,  -10,  -26,  -32
855926, 1710334087, "2024/3/13 12:48:7",  0,  -58,  1003,  0,  0,  -1,  -10,  -24,  -32
856126, 1710334087, "2024/3/13 12:48:7",  7,  -57,  1008,  0,  0,  -1,  -8,  -24,  -31
856326, 1710334087, "2024/3/13 12:48:7",  7,  -58,  1004,  0,  0,  -1,  -9,  -24,  -31
856526, 1710334088, "2024/3/13 12:48:8",  1,  -54,  1000,  0,  -1,  -1,  -9,  -27,  -33
856726, 1710334088, "2024/3/13 12:48:8",  5,  -56,  1004,  0,  0,  0,  -10,  -25,  -33
856926, 1710334088, "2024/3/13 12:48:8",  7,  -58,  1006,  0,  0,  -1,  -10,  -24,  -33
857126, 1710334088, "2024/3/13 12:48:8",  8,  -53,  1007,  0,  0,  -1,  -10,  -25,  -31
857326, 1710334088, "2024/3/13 12:48:8",  7,  -63,  1006,  0,  0,  -1,  -9,  -25,  -33
857526, 1710334089, "2024/3/13 12:48:9",  6,  -54,  1004,  0,  0,  0,  -9,  -25,  -33
857726, 1710334089, "2024/3/13 12:48:9",  0,  -57,  1001,  0,  0,  0,  -9,  -25,  -33
857926, 1710334089, "2024/3/13 12:48:9",  3,  -56,  1004,  0,  0,  0,  -9,  -26,  -33
858126, 1710334089, "2024/3/13 12:48:9",  4,  -62,  1007,  0,  0,  -1,  -10,  -25,  -32
858326, 1710334089, "2024/3/13 12:48:9",  4,  -60,  1005,  0,  0,  -1,  -10,  -26,  -32
858526, 1710334090, "2024/3/13 12:48:10",  3,  -55,  1006,  0,  0,  0,  -10,  -25,  -32
858726, 1710334090, "2024/3/13 12:48:10",  6,  -58,  1005,  0,  -1,  0,  -10,  -27,  -31
858926, 1710334090, "2024/3/13 12:48:10",  6,  -58,  1002,  0,  0,  -1,  -10,  -24,  -30
859126, 1710334090, "2024/3/13 12:48:10",  3,  -60,  1001,  0,  0,  0,  -9,  -24,  -31
859326, 1710334090, "2024/3/13 12:48:10",  2,  -64,  1003,  0,  0,  0,  -10,  -25,  -31
859526, 1710334091, "2024/3/13 12:48:11",  4,  -62,  1004,  0,  0,  -1,  -10,  -23,  -33
859726, 1710334091, "2024/3/13 12:48:11",  4,  -55,  1003,  0,  0,  0,  -10,  -26,  -32
859926, 1710334091, "2024/3/13 12:48:11",  6,  -54,  1006,  0,  0,  -1,  -9,  -26,  -33
860126, 1710334091, "2024/3/13 12:48:11",  0,  -58,  1008,  0,  0,  0,  -9,  -25,  -32
860326, 1710334091, "2024/3/13 12:48:11",  8,  -61,  1005,  0,  0,  0,  -11,  -25,  -32
860526, 1710334092, "2024/3/13 12:48:12",  4,  -51,  1002,  0,  0,  -1,  -9,  -26,  -32
860726, 1710334092, "2024/3/13 12:48:12",  6,  -51,  1005,  0,  0,  0,  -9,  -25,  -32
860926, 1710334092, "2024/3/13 12:48:12",  4,  -53,  1007,  0,  -1,  -1,  -10,  -25,  -33
861126, 1710334092, "2024/3/13 12:48:12",  2,  -56,  1001,  0,  -1,  -1,  -8,  -24,  -33
861326, 1710334092, "2024/3/13 12:48:12",  -1,  -60,  1002,  0,  0,  0,  -9,  -25,  -33
861526, 1710334093, "2024/3/13 12:48:13",  5,  -60,  1004,  0,  0,  -1,  -11,  -26,  -33
861726, 1710334093, "2024/3/13 12:48:13",  7,  -54,  1006,  0,  0,  -1,  -11,  -26,  -32
861926, 1710334093, "2024/3/13 12:48:13",  5,  -59,  1004,  0,  0,  0,  -10,  -24,  -32
862126, 1710334093, "2024/3/13 12:48:13",  0,  -56,  1001,  0,  0,  0,  -10,  -26,  -33
862326, 1710334093, "2024/3/13 12:48:13",  5,  -56,  1002,  0,  0,  -1,  -10,  -26,  -32
862526, 1710334094, "2024/3/13 12:48:14",  2,  -56,  1003,  0,  0,  -1,  -9,  -26,  -33
862726, 1710334094, "2024/3/13 12:48:14",  0,  -56,  1003,  0,  0,  -1,  -11,  -25,  -33
862926, 1710334094, "2024/3/13 12:48:14",  3,  -57,  1003,  0,  0,  0,  -8,  -24,  -33
863126, 1710334094, "2024/3/13 12:48:14",  5,  -60,  1003,  0,  0,  0,  -9,  -24,  -32
863326, 1710334094, "2024/3/13 12:48:14",  2,  -58,  1003,  0,  -1,  0,  -10,  -26,  -33
863526, 1710334095, "2024/3/13 12:48:15",  1,  -53,  1005,  0,  0,  -1,  -9,  -26,  -32
863726, 1710334095, "2024/3/13 12:48:15",  3,  -63,  1007,  0,  -1,  -1,  -9,  -27,  -33
863926, 1710334095, "2024/3/13 12:48:15",  3,  -57,  1007,  0,  0,  -1,  -10,  -26,  -32
864126, 1710334095, "2024/3/13 12:48:15",  0,  -56,  1004,  0,  0,  0,  -10,  -25,  -31
864326, 1710334095, "2024/3/13 12:48:15",  6,  -49,  1005,  0,  0,  0,  -8,  -25,  -33
864526, 1710334096, "2024/3/13 12:48:16",  1,  -60,  1005,  0,  0,  0,  -9,  -25,  -32
864726, 1710334096, "2024/3/13 12:48:16",  4,  -58,  1001,  0,  0,  -1,  -10,  -26,  -32
864926, 1710334096, "2024/3/13 12:48:16",  7,  -55,  1005,  0,  0,  -1,  -11,  -25,  -31
865126, 1710334096, "2024/3/13 12:48:16",  3,  -57,  1002,  0,  0,  -1,  -10,  -25,  -32
865326, 1710334096, "2024/3/13 12:48:16",  4,  -64,  1005,  0,  0,  -1,  -9,  -25,  -31
865526, 1710334097, "2024/3/13 12:48:17",  1,  -59,  1002,  0,  0,  -1,  -11,  -26,  -31
865726, 1710334097, "2024/3/13 12:48:17",  3,  -57,  1002,  0,  0,  0,  -10,  -24,  -30
865926, 1710334097, "2024/3/13 12:48:17",  2,  -58,  1004,  0,  0,  -1,  -10,  -25,  -33
866126, 1710334097, "2024/3/13 12:48:17",  3,  -59,  1002,  0,  -1,  -1,  -11,  -24,  -33
866326, 1710334097, "2024/3/13 12:48:17",  5,  -55,  1005,  0,  0,  -1,  -11,  -27,  -31
866526, 1710334098, "2024/3/13 12:48:18",  7,  -57,  1001,  0,  0,  -1,  -10,  -25,  -32
866726, 1710334098, "2024/3/13 12:48:18",  4,  -58,  1005,  0,  0,  -1,  -10,  -25,  -32
866926, 1710334098, "2024/3/13 12:48:18",  2,  -54,  1005,  0,  0,  -1,  -9,  -25,  -32
867126, 1710334098, "2024/3/13 12:48:18",  10,  -58,  1008,  0,  0,  -1,  -9,  -25,  -33
867326, 1710334098, "2024/3/13 12:48:18",  12,  -56,  1004,  0,  0,  -1,  -10,  -25,  -33
867526, 1710334099, "2024/3/13 12:48:19",  3,  -58,  1005,  0,  0,  -1,  -9,  -25,  -33
867726, 1710334099, "2024/3/13 12:48:19",  5,  -53,  1001,  0,  0,  -1,  -10,  -27,  -33
867926, 1710334099, "2024/3/13 12:48:19",  -1,  -59,  1005,  0,  0,  0,  -9,  -26,  -32
868126, 1710334099, "2024/3/13 12:48:19",  5,  -52,  997,  0,  0,  -1,  -11,  -26,  -32
868326, 1710334099, "2024/3/13 12:48:19",  -3,  -60,  1002,  0,  0,  0,  -9,  -25,  -33
868526, 1710334100, "2024/3/13 12:48:20",  4,  -63,  1003,  0,  0,  -1,  -9,  -25,  -33
868726, 1710334100, "2024/3/13 12:48:20",  0,  -59,  1005,  0,  0,  0,  -10,  -27,  -32
868926, 1710334100, "2024/3/13 12:48:20",  9,  -59,  1004,  0,  0,  0,  -11,  -26,  -32
869126, 1710334100, "2024/3/13 12:48:20",  7,  -61,  1004,  0,  0,  -1,  -10,  -24,  -33
869326, 1710334100, "2024/3/13 12:48:20",  2,  -56,  1004,  0,  0,  0,  -10,  -25,  -33
869526, 1710334101, "2024/3/13 12:48:21",  6,  -54,  1006,  0,  0,  -1,  -8,  -24,  -32
869726, 1710334101, "2024/3/13 12:48:21",  9,  -57,  1002,  0,  0,  0,  -9,  -25,  -32
869926, 1710334101, "2024/3/13 12:48:21",  4,  -53,  1005,  0,  0,  0,  -11,  -26,  -32
870126, 1710334101, "2024/3/13 12:48:21",  7,  -58,  1004,  0,  -1,  -1,  -11,  -25,  -32
870326, 1710334101, "2024/3/13 12:48:21",  0,  -58,  1002,  0,  -1,  -1,  -9,  -25,  -33
870526, 1710334102, "2024/3/13 12:48:22",  7,  -57,  1002,  0,  0,  -1,  -10,  -27,  -33
870726, 1710334102, "2024/3/13 12:48:22",  4,  -60,  1004,  0,  0,  -1,  -9,  -25,  -33
870926, 1710334102, "2024/3/13 12:48:22",  5,  -54,  1003,  0,  0,  -1,  -9,  -26,  -33
871126, 1710334102, "2024/3/13 12:48:22",  3,  -61,  1004,  0,  0,  -1,  -9,  -26,  -32
871326, 1710334102, "2024/3/13 12:48:22",  5,  -57,  1008,  0,  -1,  -1,  -9,  -25,  -32
871526, 1710334103, "2024/3/13 12:48:23",  4,  -62,  1004,  0,  0,  -1,  -11,  -25,  -32
871726, 1710334103, "2024/3/13 12:48:23",  3,  -58,  1004,  0,  0,  -1,  -10,  -25,  -32
871926, 1710334103, "2024/3/13 12:48:23",  3,  -53,  1005,  0,  -1,  -1,  -10,  -25,  -32
872126, 1710334103, "2024/3/13 12:48:23",  4,  -56,  1006,  0,  0,  -1,  -10,  -25,  -34
872326, 1710334103, "2024/3/13 12:48:23",  1,  -61,  1002,  0,  0,  -1,  -10,  -24,  -33
872526, 1710334104, "2024/3/13 12:48:24",  5,  -58,  1001,  0,  0,  0,  -10,  -26,  -30
872726, 1710334104, "2024/3/13 12:48:24",  6,  -56,  1002,  0,  -1,  -1,  -8,  -25,  -33
872926, 1710334104, "2024/3/13 12:48:24",  6,  -57,  1001,  0,  0,  0,  -11,  -25,  -34
873126, 1710334104, "2024/3/13 12:48:24",  4,  -55,  1006,  0,  0,  -1,  -10,  -25,  -33
873326, 1710334104, "2024/3/13 12:48:24",  6,  -60,  1002,  0,  0,  -1,  -9,  -26,  -33
873526, 1710334105, "2024/3/13 12:48:25",  5,  -58,  1006,  0,  -1,  0,  -11,  -25,  -33
873726, 1710334105, "2024/3/13 12:48:25",  7,  -55,  1004,  0,  0,  0,  -10,  -26,  -32
873926, 1710334105, "2024/3/13 12:48:25",  3,  -56,  1000,  0,  0,  -1,  -10,  -24,  -33
874126, 1710334105, "2024/3/13 12:48:25",  7,  -58,  1005,  0,  -1,  -1,  -11,  -25,  -31
874326, 1710334105, "2024/3/13 12:48:25",  9,  -61,  1007,  0,  0,  -1,  -9,  -25,  -33
874526, 1710334106, "2024/3/13 12:48:26",  6,  -64,  1004,  0,  -1,  -1,  -11,  -25,  -32
874726, 1710334106, "2024/3/13 12:48:26",  8,  -57,  1004,  0,  -1,  -1,  -10,  -25,  -32
874926, 1710334106, "2024/3/13 12:48:26",  1,  -53,  1003,  0,  0,  -1,  -10,  -26,  -32
875126, 1710334106, "2024/3/13 12:48:26",  4,  -60,  1001,  0,  0,  0,  -10,  -25,  -33
875326, 1710334106, "2024/3/13 12:48:26",  3,  -59,  1003,  0,  0,  0,  -9,  -26,  -32
875526, 1710334107, "2024/3/13 12:48:27",  4,  -54,  1002,  0,  0,  -1,  -10,  -25,  -32
875726, 1710334107, "2024/3/13 12:48:27",  5,  -59,  1004,  0,  0,  -1,  -10,  -26,  -32
875926, 1710334107, "2024/3/13 12:48:27",  4,  -54,  1003,  0,  0,  -1,  -10,  -25,  -33
876126, 1710334107, "2024/3/13 12:48:27",  4,  -59,  1004,  0,  0,  -1,  -9,  -25,  -32
876326, 1710334107, "2024/3/13 12:48:27",  5,  -51,  1002,  0,  0,  0,  -8,  -25,  -31
876526, 1710334108, "2024/3/13 12:48:28",  6,  -57,  1005,  0,  0,  -1,  -10,  -25,  -33
876726, 1710334108, "2024/3/13 12:48:28",  1,  -58,  999,  0,  0,  -1,  -9,  -25,  -33
876926, 1710334108, "2024/3/13 12:48:28",  4,  -57,  1006,  0,  0,  -1,  -9,  -25,  -33
877126, 1710334108, "2024/3/13 12:48:28",  5,  -58,  1002,  0,  0,  0,  -10,  -26,  -33
877326, 1710334108, "2024/3/13 12:48:28",  0,  -59,  1001,  0,  0,  0,  -10,  -25,  -33
877526, 1710334109, "2024/3/13 12:48:29",  3,  -58,  1008,  0,  0,  0,  -11,  -26,  -32
877726, 1710334109, "2024/3/13 12:48:29",  6,  -55,  1006,  0,  0,  0,  -8,  -26,  -33
877926, 1710334109, "2024/3/13 12:48:29",  4,  -56,  1006,  0,  0,  0,  -9,  -25,  -33
878126, 1710334109, "2024/3/13 12:48:29",  9,  -56,  1001,  0,  0,  -1,  -10,  -24,  -31
878326, 1710334109, "2024/3/13 12:48:29",  0,  -58,  1008,  0,  0,  -1,  -10,  -25,  -33
878526, 1710334110, "2024/3/13 12:48:30",  1,  -55,  1004,  0,  0,  -1,  -8,  -26,  -31
878726, 1710334110, "2024/3/13 12:48:30",  8,  -55,  1006,  0,  0,  -1,  -11,  -26,  -33
878926, 1710334110, "2024/3/13 12:48:30",  6,  -58,  1004,  0,  0,  -1,  -10,  -25,  -34
879126, 1710334110, "2024/3/13 12:48:30",  5,  -54,  1001,  0,  0,  -1,  -9,  -26,  -31
879326, 1710334110, "2024/3/13 12:48:30",  6,  -63,  1007,  0,  0,  -1,  -11,  -27,  -33
879526, 1710334111, "2024/3/13 12:48:31",  11,  -57,  1003,  0,  0,  -1,  -11,  -27,  -34
879726, 1710334111, "2024/3/13 12:48:31",  3,  -56,  1005,  0,  0,  -1,  -9,  -26,  -35
879926, 1710334111, "2024/3/13 12:48:31",  5,  -60,  1007,  0,  0,  -1,  -11,  -27,  -35
880126, 1710334111, "2024/3/13 12:48:31",  6,  -57,  1001,  0,  0,  -1,  -11,  -26,  -35
880326, 1710334111, "2024/3/13 12:48:31",  2,  -60,  1003,  0,  0,  -1,  -11,  -27,  -34
880526, 1710334112, "2024/3/13 12:48:32",  6,  -61,  1002,  0,  0,  -1,  -9,  -28,  -35
880726, 1710334112, "2024/3/13 12:48:32",  3,  -60,  1002,  0,  0,  0,  -9,  -25,  -35
880926, 1710334112, "2024/3/13 12:48:32",  1,  -59,  1003,  0,  0,  0,  -10,  -26,  -34
881126, 1710334112, "2024/3/13 12:48:32",  7,  -57,  1002,  0,  0,  -1,  -10,  -26,  -34
881326, 1710334112, "2024/3/13 12:48:32",  2,  -64,  1001,  0,  -1,  -1,  -9,  -26,  -33
881526, 1710334113, "2024/3/13 12:48:33",  8,  -64,  1004,  0,  0,  -1,  -11,  -26,  -35
881726, 1710334113, "2024/3/13 12:48:33",  2,  -56,  1004,  0,  0,  -1,  -11,  -25,  -34
881926, 1710334113, "2024/3/13 12:48:33",  2,  -53,  1006,  0,  0,  -1,  -10,  -26,  -35
882126, 1710334113, "2024/3/13 12:48:33",  7,  -57,  999,  0,  0,  -1,  -10,  -27,  -35
882326, 1710334113, "2024/3/13 12:48:33",  3,  -54,  1005,  0,  -1,  -1,  -10,  -28,  -35
882526, 1710334114, "2024/3/13 12:48:34",  1,  -57,  1003,  0,  0,  -1,  -11,  -26,  -34
882726, 1710334114, "2024/3/13 12:48:34",  5,  -55,  1006,  0,  0,  -1,  -10,  -27,  -34
882926, 1710334114, "2024/3/13 12:48:34",  -1,  -58,  1001,  0,  0,  -1,  -11,  -27,  -33
883126, 1710334114, "2024/3/13 12:48:34",  6,  -64,  1005,  0,  0,  -1,  -11,  -26,  -34
883326, 1710334114, "2024/3/13 12:48:34",  3,  -62,  1006,  0,  0,  0,  -11,  -27,  -34
883526, 1710334115, "2024/3/13 12:48:35",  0,  -52,  1002,  0,  0,  -1,  -10,  -27,  -33
883726, 1710334115, "2024/3/13 12:48:35",  0,  -60,  1004,  0,  0,  -1,  -11,  -26,  -34
883926, 1710334115, "2024/3/13 12:48:35",  4,  -57,  1004,  0,  -1,  -1,  -10,  -27,  -33
884126, 1710334115, "2024/3/13 12:48:35",  5,  -54,  1006,  0,  0,  -1,  -10,  -26,  -35
884326, 1710334115, "2024/3/13 12:48:35",  9,  -61,  1004,  0,  0,  0,  -10,  -27,  -34
884526, 1710334116, "2024/3/13 12:48:36",  6,  -60,  1005,  0,  0,  0,  -11,  -26,  -35
884726, 1710334116, "2024/3/13 12:48:36",  3,  -56,  1002,  0,  0,  -1,  -10,  -25,  -34
884926, 1710334116, "2024/3/13 12:48:36",  6,  -57,  1001,  0,  0,  -1,  -11,  -25,  -33
885126, 1710334116, "2024/3/13 12:48:36",  3,  -61,  1003,  0,  0,  0,  -10,  -26,  -34
885326, 1710334116, "2024/3/13 12:48:36",  5,  -56,  1001,  0,  0,  -1,  -10,  -26,  -32
885526, 1710334117, "2024/3/13 12:48:37",  4,  -57,  1000,  0,  0,  -1,  -11,  -26,  -34
885726, 1710334117, "2024/3/13 12:48:37",  3,  -61,  1003,  0,  0,  -1,  -11,  -27,  -34
885926, 1710334117, "2024/3/13 12:48:37",  7,  -54,  1006,  0,  0,  -1,  -11,  -26,  -34
886126, 1710334117, "2024/3/13 12:48:37",  6,  -54,  1005,  0,  0,  -1,  -13,  -27,  -33
886326, 1710334117, "2024/3/13 12:48:37",  4,  -57,  1001,  0,  0,  -1,  -12,  -26,  -34
886526, 1710334118, "2024/3/13 12:48:38",  9,  -57,  1004,  0,  -1,  -1,  -11,  -26,  -34
886726, 1710334118, "2024/3/13 12:48:38",  0,  -58,  1003,  0,  0,  -1,  -10,  -27,  -34
886926, 1710334118, "2024/3/13 12:48:38",  6,  -59,  1003,  0,  0,  -1,  -9,  -26,  -34
887126, 1710334118, "2024/3/13 12:48:38",  8,  -60,  1005,  0,  0,  -1,  -11,  -26,  -34
887326, 1710334118, "2024/3/13 12:48:38",  3,  -58,  1002,  0,  0,  0,  -11,  -25,  -34
887526, 1710334119, "2024/3/13 12:48:39",  7,  -51,  1005,  0,  -1,  0,  -10,  -25,  -35
887726, 1710334119, "2024/3/13 12:48:39",  7,  -55,  1001,  0,  0,  -1,  -11,  -25,  -33
887926, 1710334119, "2024/3/13 12:48:39",  1,  -59,  1006,  0,  0,  -1,  -12,  -26,  -35
888126, 1710334119, "2024/3/13 12:48:39",  8,  -61,  1006,  0,  0,  -1,  -11,  -26,  -35
888326, 1710334119, "2024/3/13 12:48:39",  8,  -60,  1009,  0,  0,  -1,  -11,  -25,  -35
888526, 1710334120, "2024/3/13 12:48:40",  9,  -56,  1006,  0,  0,  0,  -11,  -26,  -33
888726, 1710334120, "2024/3/13 12:48:40",  4,  -57,  1004,  0,  0,  0,  -11,  -26,  -34
888926, 1710334120, "2024/3/13 12:48:40",  3,  -51,  1001,  0,  -1,  -1,  -9,  -25,  -34
889126, 1710334120, "2024/3/13 12:48:40",  0,  -54,  1007,  0,  0,  -1,  -11,  -27,  -34
889326, 1710334120, "2024/3/13 12:48:40",  -1,  -60,  1000,  0,  0,  -1,  -9,  -26,  -34
889526, 1710334121, "2024/3/13 12:48:41",  5,  -65,  1003,  0,  0,  -1,  -9,  -26,  -34
889726, 1710334121, "2024/3/13 12:48:41",  5,  -59,  1004,  0,  0,  0,  -12,  -26,  -34
889926, 1710334121, "2024/3/13 12:48:41",  5,  -56,  1001,  0,  0,  -1,  -11,  -27,  -36
890126, 1710334121, "2024/3/13 12:48:41",  9,  -52,  1002,  0,  0,  -1,  -11,  -26,  -33
890326, 1710334121, "2024/3/13 12:48:41",  6,  -62,  1004,  0,  0,  -1,  -11,  -26,  -36
890526, 1710334122, "2024/3/13 12:48:42",  7,  -63,  1006,  0,  0,  -1,  -11,  -24,  -33
890726, 1710334122, "2024/3/13 12:48:42",  3,  -53,  1005,  0,  0,  -1,  -10,  -25,  -34
890926, 1710334122, "2024/3/13 12:48:42",  2,  -58,  1005,  0,  0,  0,  -10,  -27,  -35
891126, 1710334122, "2024/3/13 12:48:42",  6,  -56,  1002,  0,  0,  -1,  -9,  -27,  -34
891326, 1710334122, "2024/3/13 12:48:42",  4,  -58,  1004,  0,  0,  -1,  -9,  -26,  -34
891526, 1710334123, "2024/3/13 12:48:43",  5,  -54,  1004,  0,  0,  0,  -11,  -25,  -34
891726, 1710334123, "2024/3/13 12:48:43",  -1,  -55,  1007,  0,  0,  0,  -11,  -26,  -33
891926, 1710334123, "2024/3/13 12:48:43",  4,  -53,  1007,  0,  -1,  -1,  -11,  -26,  -34
892126, 1710334123, "2024/3/13 12:48:43",  5,  -63,  1005,  0,  0,  -1,  -11,  -28,  -36
892326, 1710334123, "2024/3/13 12:48:43",  5,  -61,  1005,  0,  0,  -1,  -11,  -25,  -35
892526, 1710334124, "2024/3/13 12:48:44",  0,  -58,  1002,  0,  0,  -1,  -10,  -26,  -35
892726, 1710334124, "2024/3/13 12:48:44",  12,  -59,  1002,  0,  0,  0,  -11,  -26,  -34
892926, 1710334124, "2024/3/13 12:48:44",  4,  -62,  1002,  0,  0,  -1,  -10,  -26,  -33
893126, 1710334124, "2024/3/13 12:48:44",  6,  -49,  1007,  0,  0,  -1,  -9,  -27,  -35
893326, 1710334124, "2024/3/13 12:48:44",  6,  -62,  1003,  0,  0,  0,  -10,  -26,  -32
893526, 1710334125, "2024/3/13 12:48:45",  6,  -59,  1003,  0,  0,  -1,  -10,  -25,  -34
893726, 1710334125, "2024/3/13 12:48:45",  9,  -56,  1003,  0,  0,  0,  -10,  -26,  -34
893926, 1710334125, "2024/3/13 12:48:45",  7,  -57,  1004,  0,  0,  -1,  -12,  -26,  -34
894126, 1710334125, "2024/3/13 12:48:45",  6,  -58,  1005,  0,  0,  -1,  -12,  -27,  -34
894326, 1710334125, "2024/3/13 12:48:45",  4,  -58,  1002,  0,  0,  0,  -11,  -25,  -34
894526, 1710334126, "2024/3/13 12:48:46",  6,  -55,  1004,  0,  0,  -1,  -9,  -26,  -34
894726, 1710334126, "2024/3/13 12:48:46",  4,  -60,  1003,  0,  0,  0,  -11,  -26,  -33
894926, 1710334126, "2024/3/13 12:48:46",  5,  -56,  1004,  0,  0,  -1,  -11,  -24,  -33
895126, 1710334126, "2024/3/13 12:48:46",  0,  -56,  1005,  0,  0,  -1,  -9,  -26,  -34
895326, 1710334126, "2024/3/13 12:48:46",  4,  -55,  1003,  0,  0,  0,  -12,  -24,  -34
895526, 1710334127, "2024/3/13 12:48:47",  1,  -63,  1004,  0,  0,  0,  -9,  -25,  -34
895726, 1710334127, "2024/3/13 12:48:47",  5,  -62,  1001,  0,  0,  -1,  -12,  -25,  -35
895926, 1710334127, "2024/3/13 12:48:47",  6,  -53,  1005,  0,  -1,  -1,  -11,  -26,  -35
896126, 1710334127, "2024/3/13 12:48:47",  8,  -62,  1001,  0,  0,  -1,  -10,  -26,  -34
896326, 1710334127, "2024/3/13 12:48:47",  11,  -56,  1006,  0,  0,  0,  -12,  -24,  -34
896526, 1710334128, "2024/3/13 12:48:48",  6,  -59,  1003,  0,  0,  0,  -10,  -25,  -34
896726, 1710334128, "2024/3/13 12:48:48",  2,  -60,  1004,  0,  0,  -1,  -11,  -25,  -34
896926, 1710334128, "2024/3/13 12:48:48",  3,  -59,  1004,  0,  -1,  -1,  -10,  -27,  -33
897126, 1710334128, "2024/3/13 12:48:48",  4,  -61,  1005,  0,  0,  -1,  -11,  -27,  -33
897326, 1710334128, "2024/3/13 12:48:48",  3,  -59,  1000,  0,  0,  0,  -10,  -27,  -34
897526, 1710334129, "2024/3/13 12:48:49",  1,  -52,  1005,  0,  0,  0,  -11,  -25,  -35
897726, 1710334129, "2024/3/13 12:48:49",  5,  -55,  1004,  0,  0,  0,  -10,  -24,  -35
897926, 1710334129, "2024/3/13 12:48:49",  4,  -59,  1008,  0,  0,  0,  -11,  -24,  -33
898126, 1710334129, "2024/3/13 12:48:49",  4,  -59,  1003,  0,  0,  0,  -11,  -27,  -34
898326, 1710334129, "2024/3/13 12:48:49",  7,  -54,  1008,  0,  -1,  -1,  -9,  -23,  -34
898526, 1710334130, "2024/3/13 12:48:50",  2,  -61,  1005,  0,  0,  -1,  -11,  -25,  -35
898726, 1710334130, "2024/3/13 12:48:50",  0,  -60,  1004,  0,  0,  -1,  -11,  -25,  -35
898926, 1710334130, "2024/3/13 12:48:50",  7,  -56,  1006,  0,  0,  -1,  -12,  -26,  -33
899126, 1710334130, "2024/3/13 12:48:50",  7,  -57,  1005,  0,  0,  -1,  -10,  -26,  -34
899326, 1710334130, "2024/3/13 12:48:50",  5,  -57,  1003,  0,  0,  0,  -9,  -25,  -36
899526, 1710334131, "2024/3/13 12:48:51",  6,  -57,  1005,  0,  0,  -1,  -10,  -27,  -35
899726, 1710334131, "2024/3/13 12:48:51",  0,  -57,  1007,  0,  0,  0,  -10,  -26,  -34
899926, 1710334131, "2024/3/13 12:48:51",  5,  -59,  1004,  0,  0,  -1,  -11,  -25,  -34
900126, 1710334131, "2024/3/13 12:48:51",  5,  -57,  1007,  0,  0,  0,  -11,  -26,  -34
900326, 1710334131, "2024/3/13 12:48:51",  4,  -52,  1001,  0,  -1,  -1,  -10,  -26,  -35
900526, 1710334132, "2024/3/13 12:48:52",  5,  -52,  1001,  0,  0,  -1,  -10,  -26,  -34
900726, 1710334132, "2024/3/13 12:48:52",  4,  -61,  1001,  0,  0,  -1,  -9,  -25,  -34
900926, 1710334132, "2024/3/13 12:48:52",  8,  -58,  1003,  0,  0,  0,  -10,  -26,  -35
901126, 1710334132, "2024/3/13 12:48:52",  8,  -59,  1002,  0,  -1,  -1,  -12,  -26,  -35
901326, 1710334132, "2024/3/13 12:48:52",  5,  -60,  1002,  0,  0,  0,  -11,  -25,  -33
901526, 1710334133, "2024/3/13 12:48:53",  4,  -57,  1002,  0,  0,  0,  -9,  -25,  -33
901726, 1710334133, "2024/3/13 12:48:53",  8,  -57,  1002,  0,  0,  -1,  -11,  -25,  -34
901926, 1710334133, "2024/3/13 12:48:53",  3,  -55,  999,  0,  -1,  -1,  -12,  -24,  -34
902126, 1710334133, "2024/3/13 12:48:53",  4,  -53,  1006,  0,  0,  -1,  -11,  -25,  -34
902326, 1710334133, "2024/3/13 12:48:53",  4,  -56,  1002,  0,  0,  -1,  -12,  -26,  -33
902526, 1710334134, "2024/3/13 12:48:54",  3,  -59,  1005,  0,  0,  0,  -9,  -25,  -34
902726, 1710334134, "2024/3/13 12:48:54",  6,  -59,  1004,  0,  0,  -1,  -11,  -26,  -36
902926, 1710334134, "2024/3/13 12:48:54",  4,  -59,  1007,  0,  0,  -1,  -12,  -27,  -33
903126, 1710334134, "2024/3/13 12:48:54",  6,  -55,  1004,  0,  0,  -1,  -10,  -25,  -35
903326, 1710334134, "2024/3/13 12:48:54",  6,  -55,  1006,  0,  0,  -1,  -11,  -26,  -33
903526, 1710334135, "2024/3/13 12:48:55",  5,  -56,  1003,  0,  0,  -1,  -12,  -25,  -33
903726, 1710334135, "2024/3/13 12:48:55",  7,  -56,  1006,  0,  0,  -1,  -11,  -27,  -34
903926, 1710334135, "2024/3/13 12:48:55",  5,  -58,  1007,  0,  0,  0,  -10,  -26,  -36
904126, 1710334135, "2024/3/13 12:48:55",  4,  -56,  1003,  0,  0,  -1,  -12,  -26,  -35
904326, 1710334135, "2024/3/13 12:48:55",  7,  -57,  1002,  0,  0,  0,  -10,  -26,  -34
904526, 1710334136, "2024/3/13 12:48:56",  6,  -53,  1003,  0,  0,  -1,  -11,  -24,  -33
904726, 1710334136, "2024/3/13 12:48:56",  8,  -59,  1004,  0,  0,  -1,  -9,  -26,  -33
904926, 1710334136, "2024/3/13 12:48:56",  6,  -56,  1005,  0,  0,  0,  -9,  -25,  -34
905126, 1710334136, "2024/3/13 12:48:56",  2,  -62,  1000,  0,  0,  -1,  -10,  -26,  -36
905326, 1710334136, "2024/3/13 12:48:56",  5,  -63,  1005,  0,  0,  0,  -10,  -25,  -34
905526, 1710334137, "2024/3/13 12:48:57",  4,  -58,  1003,  0,  0,  0,  -11,  -27,  -34
905726, 1710334137, "2024/3/13 12:48:57",  6,  -56,  1007,  0,  0,  -1,  -12,  -26,  -33
905926, 1710334137, "2024/3/13 12:48:57",  1,  -59,  1001,  0,  0,  -1,  -10,  -24,  -34
906126, 1710334137, "2024/3/13 12:48:57",  5,  -57,  1006,  0,  0,  -1,  -10,  -26,  -33
906326, 1710334137, "2024/3/13 12:48:57",  7,  -55,  1006,  0,  -1,  -1,  -10,  -25,  -34
906526, 1710334138, "2024/3/13 12:48:58",  9,  -61,  1003,  0,  0,  -1,  -10,  -26,  -34
906726, 1710334138, "2024/3/13 12:48:58",  4,  -64,  1008,  0,  0,  0,  -10,  -26,  -34
906926, 1710334138, "2024/3/13 12:48:58",  5,  -53,  1006,  0,  0,  0,  -10,  -25,  -34
907126, 1710334138, "2024/3/13 12:48:58",  4,  -57,  1005,  0,  0,  0,  -9,  -25,  -32
907326, 1710334138, "2024/3/13 12:48:58",  7,  -58,  1005,  0,  0,  0,  -10,  -26,  -35
907526, 1710334139, "2024/3/13 12:48:59",  5,  -60,  1002,  0,  0,  0,  -11,  -26,  -36
907726, 1710334139, "2024/3/13 12:48:59",  2,  -59,  1004,  0,  0,  0,  -11,  -26,  -35
907926, 1710334139, "2024/3/13 12:48:59",  5,  -59,  1004,  0,  -1,  -1,  -9,  -27,  -35
908126, 1710334139, "2024/3/13 12:48:59",  4,  -53,  1007,  0,  0,  -1,  -10,  -25,  -36
908326, 1710334139, "2024/3/13 12:48:59",  3,  -53,  1003,  0,  0,  0,  -10,  -26,  -36
908526, 1710334140, "2024/3/13 12:49:0",  10,  -58,  1003,  0,  0,  0,  -11,  -26,  -33
908726, 1710334140, "2024/3/13 12:49:0",  7,  -62,  1006,  0,  0,  0,  -11,  -25,  -36
908926, 1710334140, "2024/3/13 12:49:0",  1,  -55,  1001,  0,  0,  0,  -11,  -27,  -34
909126, 1710334140, "2024/3/13 12:49:0",  2,  -59,  1000,  0,  0,  -1,  -10,  -25,  -34
909326, 1710334140, "2024/3/13 12:49:0",  4,  -66,  1006,  0,  0,  -1,  -12,  -26,  -35
909526, 1710334141, "2024/3/13 12:49:1",  8,  -59,  1001,  0,  0,  -1,  -10,  -26,  -34
909726, 1710334141, "2024/3/13 12:49:1",  5,  -55,  1003,  0,  0,  0,  -11,  -26,  -33
909926, 1710334141, "2024/3/13 12:49:1",  5,  -57,  1006,  0,  0,  0,  -11,  -25,  -34
910126, 1710334141, "2024/3/13 12:49:1",  1,  -54,  1004,  0,  0,  -1,  -10,  -25,  -34
910326, 1710334141, "2024/3/13 12:49:1",  5,  -60,  1006,  0,  0,  -1,  -11,  -26,  -34
910526, 1710334142, "2024/3/13 12:49:2",  3,  -57,  1004,  0,  0,  -1,  -11,  -25,  -35
910726, 1710334142, "2024/3/13 12:49:2",  0,  -56,  1000,  0,  0,  -1,  -11,  -26,  -34
910926, 1710334142, "2024/3/13 12:49:2",  5,  -60,  1008,  0,  0,  0,  -10,  -25,  -35
911126, 1710334142, "2024/3/13 12:49:2",  4,  -57,  1002,  0,  0,  0,  -11,  -26,  -33
911326, 1710334142, "2024/3/13 12:49:2",  6,  -53,  1002,  0,  0,  0,  -11,  -26,  -34
911526, 1710334143, "2024/3/13 12:49:3",  6,  -65,  1008,  0,  0,  -1,  -11,  -28,  -36
911726, 1710334143, "2024/3/13 12:49:3",  7,  -54,  1004,  0,  0,  0,  -11,  -27,  -34
911926, 1710334143, "2024/3/13 12:49:3",  8,  -57,  1002,  0,  0,  -1,  -12,  -25,  -35
912126, 1710334143, "2024/3/13 12:49:3",  -1,  -53,  1001,  0,  0,  -1,  -11,  -27,  -34
912326, 1710334143, "2024/3/13 12:49:3",  4,  -56,  1002,  0,  0,  0,  -10,  -26,  -33
912526, 1710334144, "2024/3/13 12:49:4",  7,  -59,  1006,  0,  0,  -1,  -10,  -25,  -34
912726, 1710334144, "2024/3/13 12:49:4",  0,  -57,  999,  0,  0,  -1,  -11,  -25,  -35
912926, 1710334144, "2024/3/13 12:49:4",  2,  -61,  1001,  0,  0,  -1,  -10,  -25,  -34
913126, 1710334144, "2024/3/13 12:49:4",  1,  -61,  1003,  0,  0,  -1,  -11,  -26,  -33
913326, 1710334144, "2024/3/13 12:49:4",  4,  -57,  1003,  0,  -1,  -1,  -11,  -23,  -34
913526, 1710334145, "2024/3/13 12:49:5",  5,  -56,  1007,  0,  0,  0,  -11,  -26,  -36
913726, 1710334145, "2024/3/13 12:49:5",  1,  -58,  1004,  0,  0,  -1,  -11,  -24,  -34
913926, 1710334145, "2024/3/13 12:49:5",  5,  -54,  1006,  0,  0,  -1,  -9,  -24,  -35
914126, 1710334145, "2024/3/13 12:49:5",  3,  -58,  1006,  0,  0,  -1,  -9,  -27,  -33
914326, 1710334145, "2024/3/13 12:49:5",  6,  -56,  1002,  0,  0,  0,  -11,  -27,  -33
914526, 1710334146, "2024/3/13 12:49:6",  2,  -59,  1004,  0,  0,  -1,  -11,  -25,  -34
914726, 1710334146, "2024/3/13 12:49:6",  4,  -58,  1007,  0,  0,  0,  -11,  -25,  -35
914926, 1710334146, "2024/3/13 12:49:6",  6,  -57,  1001,  0,  0,  0,  -11,  -26,  -36
915126, 1710334146, "2024/3/13 12:49:6",  5,  -55,  1006,  0,  0,  -1,  -10,  -24,  -34
915326, 1710334146, "2024/3/13 12:49:6",  2,  -59,  1002,  0,  0,  -1,  -10,  -25,  -35
915526, 1710334147, "2024/3/13 12:49:7",  4,  -59,  1002,  0,  0,  0,  -12,  -25,  -34
915726, 1710334147, "2024/3/13 12:49:7",  3,  -62,  1006,  0,  0,  0,  -12,  -27,  -34
915926, 1710334147, "2024/3/13 12:49:7",  2,  -62,  1002,  0,  0,  -1,  -9,  -25,  -35
916126, 1710334147, "2024/3/13 12:49:7",  4,  -62,  1004,  0,  -1,  -1,  -11,  -27,  -35
916326, 1710334147, "2024/3/13 12:49:7",  6,  -57,  1005,  0,  0,  -1,  -10,  -26,  -36
916526, 1710334148, "2024/3/13 12:49:8",  7,  -54,  1005,  0,  0,  -1,  -10,  -27,  -34
916726, 1710334148, "2024/3/13 12:49:8",  5,  -59,  1001,  0,  0,  -1,  -11,  -28,  -35
916926, 1710334148, "2024/3/13 12:49:8",  3,  -58,  1004,  0,  0,  -1,  -11,  -27,  -34
917126, 1710334148, "2024/3/13 12:49:8",  -3,  -59,  1002,  0,  0,  0,  -11,  -27,  -34
917326, 1710334148, "2024/3/13 12:49:8",  5,  -57,  1004,  0,  0,  -1,  -11,  -27,  -34
917526, 1710334149, "2024/3/13 12:49:9",  6,  -61,  1007,  0,  -1,  0,  -11,  -26,  -34
917726, 1710334149, "2024/3/13 12:49:9",  3,  -63,  1003,  0,  0,  0,  -10,  -25,  -33
917926, 1710334149, "2024/3/13 12:49:9",  7,  -63,  1004,  0,  -1,  -1,  -10,  -24,  -34
918126, 1710334149, "2024/3/13 12:49:9",  0,  -57,  1002,  0,  -1,  -1,  -10,  -27,  -34
918326, 1710334149, "2024/3/13 12:49:9",  3,  -61,  1004,  0,  0,  0,  -11,  -27,  -34
918526, 1710334150, "2024/3/13 12:49:10",  5,  -53,  998,  0,  0,  -1,  -12,  -25,  -34
918726, 1710334150, "2024/3/13 12:49:10",  4,  -55,  1006,  0,  0,  -1,  -11,  -25,  -33
