millis,stamp,datetime,accX,accY,accZ,gyroX,gyroY,gyroZ,compX,compY,compZ
2222654, 1710335455, "2024/3/13 13:10:55",  3,  -54,  1003,  0,  0,  -1,  -10,  -25,  -37
2222854, 1710335455, "2024/3/13 13:10:55",  5,  -52,  999,  0,  0,  -1,  -10,  -26,  -37
2223054, 1710335455, "2024/3/13 13:10:55",  7,  -53,  999,  0,  -1,  -1,  -9,  -26,  -38
2223254, 1710335455, "2024/3/13 13:10:55",  3,  -59,  1002,  0,  0,  0,  -10,  -25,  -38
2223454, 1710335455, "2024/3/13 13:10:55",  6,  -55,  1004,  0,  0,  0,  -10,  -27,  -38
2223654, 1710335456, "2024/3/13 13:10:56",  0,  -61,  999,  0,  0,  -1,  -9,  -26,  -38
2223854, 1710335456, "2024/3/13 13:10:56",  4,  -62,  1004,  0,  0,  -1,  -10,  -25,  -39
2224054, 1710335456, "2024/3/13 13:10:56",  3,  -59,  1005,  0,  0,  -1,  -9,  -26,  -39
2224254, 1710335456, "2024/3/13 13:10:56",  2,  -57,  1003,  0,  0,  -1,  -11,  -27,  -39
2224454, 1710335456, "2024/3/13 13:10:56",  6,  -61,  1004,  0,  0,  0,  -9,  -27,  -38
2224654, 1710335457, "2024/3/13 13:10:57",  2,  -59,  1003,  0,  0,  -1,  -9,  -27,  -37
2224854, 1710335457, "2024/3/13 13:10:57",  4,  -61,  999,  0,  0,  -1,  -11,  -27,  -37
2225054, 1710335457, "2024/3/13 13:10:57",  7,  -54,  1003,  0,  0,  -1,  -10,  -26,  -39
2225254, 1710335457, "2024/3/13 13:10:57",  0,  -55,  1004,  0,  0,  -1,  -8,  -26,  -38
2225454, 1710335457, "2024/3/13 13:10:57",  0,  -54,  1000,  0,  0,  0,  -9,  -26,  -39
2225654, 1710335458, "2024/3/13 13:10:58",  3,  -61,  1003,  0,  0,  0,  -9,  -27,  -39
2225854, 1710335458, "2024/3/13 13:10:58",  6,  -53,  1004,  0,  0,  -1,  -10,  -24,  -39
2226054, 1710335458, "2024/3/13 13:10:58",  9,  -59,  1001,  0,  0,  -1,  -9,  -27,  -39
2226254, 1710335458, "2024/3/13 13:10:58",  3,  -53,  1003,  0,  0,  -1,  -10,  -26,  -38
2226454, 1710335458, "2024/3/13 13:10:58",  6,  -60,  1001,  0,  0,  -1,  -11,  -25,  -38
2226654, 1710335459, "2024/3/13 13:10:59",  7,  -57,  1001,  0,  0,  0,  -9,  -26,  -37
2226854, 1710335459, "2024/3/13 13:10:59",  1,  -64,  1001,  0,  0,  0,  -9,  -27,  -38
2227054, 1710335459, "2024/3/13 13:10:59",  5,  -59,  1002,  0,  0,  0,  -9,  -24,  -37
2227254, 1710335459, "2024/3/13 13:10:59",  3,  -57,  1005,  0,  0,  -1,  -9,  -27,  -37
2227454, 1710335459, "2024/3/13 13:10:59",  6,  -63,  1003,  0,  0,  -1,  -9,  -27,  -38
2227654, 1710335460, "2024/3/13 13:11:0",  5,  -60,  1001,  0,  0,  -1,  -9,  -26,  -38
2227854, 1710335460, "2024/3/13 13:11:0",  8,  -55,  1001,  0,  0,  -1,  -10,  -26,  -37
2228054, 1710335460, "2024/3/13 13:11:0",  5,  -54,  1000,  0,  0,  0,  -9,  -26,  -36
2228254, 1710335460, "2024/3/13 13:11:0",  8,  -57,  1002,  0,  0,  0,  -10,  -26,  -38
2228454, 1710335460, "2024/3/13 13:11:0",  11,  -58,  1003,  0,  0,  0,  -9,  -26,  -38
2228654, 1710335461, "2024/3/13 13:11:1",  3,  -67,  1005,  0,  -1,  0,  -10,  -27,  -38
2228854, 1710335461, "2024/3/13 13:11:1",  0,  -60,  1000,  0,  0,  -1,  -11,  -26,  -40
2229054, 1710335461, "2024/3/13 13:11:1",  6,  -58,  1002,  0,  0,  -1,  -11,  -26,  -39
2229254, 1710335461, "2024/3/13 13:11:1",  4,  -63,  1003,  0,  0,  -1,  -9,  -26,  -40
2229454, 1710335461, "2024/3/13 13:11:1",  7,  -53,  1004,  0,  0,  0,  -9,  -26,  -40
2229654, 1710335462, "2024/3/13 13:11:2",  3,  -64,  1003,  0,  -1,  -1,  -11,  -27,  -40
2229854, 1710335462, "2024/3/13 13:11:2",  8,  -61,  1006,  0,  0,  0,  -9,  -26,  -38
2230054, 1710335462, "2024/3/13 13:11:2",  10,  -58,  1004,  0,  0,  -1,  -8,  -27,  -39
2230254, 1710335462, "2024/3/13 13:11:2",  4,  -57,  1004,  0,  -1,  -1,  -9,  -26,  -40
2230454, 1710335462, "2024/3/13 13:11:2",  5,  -60,  1006,  0,  0,  -1,  -9,  -25,  -40
2230654, 1710335463, "2024/3/13 13:11:3",  5,  -62,  1003,  0,  -1,  0,  -10,  -27,  -40
2230854, 1710335463, "2024/3/13 13:11:3",  5,  -53,  999,  0,  0,  0,  -8,  -26,  -38
2231054, 1710335463, "2024/3/13 13:11:3",  7,  -54,  1005,  0,  0,  0,  -10,  -26,  -42
2231254, 1710335463, "2024/3/13 13:11:3",  6,  -58,  1004,  0,  0,  0,  -10,  -26,  -39
2231454, 1710335463, "2024/3/13 13:11:3",  6,  -57,  1005,  0,  0,  -1,  -11,  -27,  -40
2231654, 1710335464, "2024/3/13 13:11:4",  2,  -58,  1003,  0,  0,  -1,  -10,  -26,  -40
2231854, 1710335464, "2024/3/13 13:11:4",  6,  -60,  1004,  0,  0,  -1,  -10,  -26,  -40
2232054, 1710335464, "2024/3/13 13:11:4",  3,  -55,  1000,  0,  0,  0,  -10,  -26,  -39
2232254, 1710335464, "2024/3/13 13:11:4",  1,  -51,  1001,  0,  0,  0,  -9,  -26,  -40
2232454, 1710335464, "2024/3/13 13:11:4",  7,  -61,  1002,  0,  0,  -1,  -11,  -26,  -39
2232654, 1710335465, "2024/3/13 13:11:5",  8,  -57,  1004,  0,  0,  -1,  -9,  -27,  -39
2232854, 1710335465, "2024/3/13 13:11:5",  5,  -59,  1006,  0,  -1,  -1,  -10,  -26,  -39
2233054, 1710335465, "2024/3/13 13:11:5",  6,  -59,  1001,  0,  0,  -1,  -11,  -25,  -40
2233254, 1710335465, "2024/3/13 13:11:5",  3,  -60,  1003,  0,  0,  -1,  -10,  -27,  -41
2233454, 1710335465, "2024/3/13 13:11:5",  3,  -61,  1002,  0,  0,  -1,  -10,  -26,  -39
2233654, 1710335466, "2024/3/13 13:11:6",  4,  -62,  1004,  0,  0,  0,  -9,  -26,  -40
2233854, 1710335466, "2024/3/13 13:11:6",  4,  -55,  1003,  0,  0,  -1,  -11,  -27,  -38
2234054, 1710335466, "2024/3/13 13:11:6",  3,  -62,  1003,  0,  0,  -1,  -9,  -27,  -39
2234254, 1710335466, "2024/3/13 13:11:6",  5,  -55,  1006,  0,  0,  0,  -10,  -26,  -38
2234454, 1710335466, "2024/3/13 13:11:6",  7,  -55,  1000,  0,  -1,  -1,  -11,  -25,  -40
2234654, 1710335467, "2024/3/13 13:11:7",  6,  -57,  999,  0,  0,  -1,  -10,  -26,  -39
2234854, 1710335467, "2024/3/13 13:11:7",  5,  -57,  1003,  0,  0,  -1,  -9,  -26,  -40
2235054, 1710335467, "2024/3/13 13:11:7",  4,  -60,  1005,  0,  0,  -1,  -10,  -27,  -39
2235254, 1710335467, "2024/3/13 13:11:7",  7,  -55,  1001,  0,  0,  -1,  -9,  -25,  -39
2235454, 1710335467, "2024/3/13 13:11:7",  7,  -55,  1005,  0,  0,  0,  -10,  -26,  -41
2235654, 1710335468, "2024/3/13 13:11:8",  7,  -58,  1008,  0,  0,  0,  -10,  -26,  -39
2235854, 1710335468, "2024/3/13 13:11:8",  5,  -57,  1007,  0,  0,  0,  -9,  -27,  -38
2236054, 1710335468, "2024/3/13 13:11:8",  5,  -54,  1006,  0,  0,  -1,  -10,  -26,  -39
2236254, 1710335468, "2024/3/13 13:11:8",  2,  -55,  1004,  0,  0,  0,  -9,  -26,  -39
2236454, 1710335468, "2024/3/13 13:11:8",  3,  -56,  1001,  0,  0,  0,  -10,  -26,  -40
2236654, 1710335469, "2024/3/13 13:11:9",  5,  -52,  1003,  0,  0,  -1,  -10,  -27,  -40
2236854, 1710335469, "2024/3/13 13:11:9",  6,  -59,  1003,  0,  0,  -1,  -11,  -27,  -39
2237054, 1710335469, "2024/3/13 13:11:9",  3,  -58,  1000,  0,  0,  -1,  -12,  -26,  -39
2237254, 1710335469, "2024/3/13 13:11:9",  6,  -57,  1008,  0,  0,  0,  -10,  -26,  -39
2237454, 1710335469, "2024/3/13 13:11:9",  2,  -60,  1003,  0,  0,  -1,  -10,  -25,  -39
2237654, 1710335470, "2024/3/13 13:11:10",  11,  -53,  1007,  0,  0,  -1,  -10,  -26,  -40
2237854, 1710335470, "2024/3/13 13:11:10",  2,  -57,  1002,  0,  0,  -1,  -10,  -27,  -41
2238054, 1710335470, "2024/3/13 13:11:10",  1,  -60,  1005,  0,  0,  -1,  -9,  -26,  -40
2238254, 1710335470, "2024/3/13 13:11:10",  6,  -59,  1003,  0,  0,  -1,  -11,  -25,  -39
2238454, 1710335470, "2024/3/13 13:11:10",  6,  -57,  1007,  0,  0,  -1,  -10,  -25,  -37
2238654, 1710335471, "2024/3/13 13:11:11",  9,  -53,  1000,  0,  0,  0,  -12,  -26,  -39
2238854, 1710335471, "2024/3/13 13:11:11",  3,  -55,  1008,  0,  0,  0,  -9,  -26,  -38
2239054, 1710335471, "2024/3/13 13:11:11",  1,  -61,  1008,  0,  0,  0,  -11,  -26,  -39
2239254, 1710335471, "2024/3/13 13:11:11",  3,  -62,  1003,  0,  0,  -1,  -10,  -27,  -39
2239454, 1710335471, "2024/3/13 13:11:11",  7,  -54,  1005,  0,  0,  -1,  -11,  -26,  -38
2239654, 1710335472, "2024/3/13 13:11:12",  6,  -56,  1001,  0,  0,  -1,  -8,  -26,  -40
2239854, 1710335472, "2024/3/13 13:11:12",  4,  -59,  1004,  0,  0,  -1,  -11,  -26,  -39
2240054, 1710335472, "2024/3/13 13:11:12",  3,  -56,  1004,  0,  0,  0,  -10,  -26,  -39
2240254, 1710335472, "2024/3/13 13:11:12",  5,  -53,  1003,  0,  0,  -1,  -9,  -27,  -40
2240454, 1710335472, "2024/3/13 13:11:12",  8,  -60,  1004,  0,  0,  -1,  -10,  -25,  -40
2240654, 1710335473, "2024/3/13 13:11:13",  8,  -62,  1002,  0,  0,  -1,  -10,  -25,  -40
2240854, 1710335473, "2024/3/13 13:11:13",  4,  -61,  1001,  0,  0,  -1,  -9,  -27,  -39
2241054, 1710335473, "2024/3/13 13:11:13",  2,  -60,  1002,  0,  0,  -1,  -10,  -27,  -39
2241254, 1710335473, "2024/3/13 13:11:13",  5,  -61,  1001,  0,  0,  -1,  -11,  -27,  -39
2241454, 1710335473, "2024/3/13 13:11:13",  8,  -61,  1002,  0,  0,  0,  -11,  -27,  -39
2241654, 1710335474, "2024/3/13 13:11:14",  5,  -59,  1003,  0,  0,  0,  -10,  -26,  -38
2241854, 1710335474, "2024/3/13 13:11:14",  6,  -58,  1005,  0,  0,  -1,  -9,  -25,  -39
2242054, 1710335474, "2024/3/13 13:11:14",  0,  -57,  1005,  0,  0,  -1,  -9,  -26,  -39
2242254, 1710335474, "2024/3/13 13:11:14",  5,  -55,  1001,  0,  0,  -1,  -11,  -26,  -39
2242454, 1710335474, "2024/3/13 13:11:14",  4,  -54,  1003,  0,  0,  -1,  -11,  -27,  -39
2242654, 1710335475, "2024/3/13 13:11:15",  8,  -54,  1000,  0,  0,  0,  -9,  -28,  -40
2242854, 1710335475, "2024/3/13 13:11:15",  11,  -62,  1003,  0,  0,  0,  -11,  -26,  -38
2243054, 1710335475, "2024/3/13 13:11:15",  6,  -55,  1007,  0,  0,  0,  -11,  -27,  -38
2243254, 1710335475, "2024/3/13 13:11:15",  7,  -61,  1002,  0,  0,  -1,  -10,  -26,  -38
2243454, 1710335475, "2024/3/13 13:11:15",  7,  -61,  1003,  0,  0,  0,  -10,  -25,  -39
2243654, 1710335476, "2024/3/13 13:11:16",  5,  -61,  1003,  0,  0,  -1,  -10,  -26,  -40
2243854, 1710335476, "2024/3/13 13:11:16",  3,  -59,  1000,  0,  0,  0,  -10,  -25,  -38
2244054, 1710335476, "2024/3/13 13:11:16",  2,  -60,  1006,  0,  -1,  0,  -9,  -26,  -39
2244254, 1710335476, "2024/3/13 13:11:16",  5,  -53,  1004,  0,  0,  -1,  -10,  -26,  -40
2244454, 1710335476, "2024/3/13 13:11:16",  5,  -62,  1003,  0,  -1,  -1,  -9,  -27,  -40
2244654, 1710335477, "2024/3/13 13:11:17",  8,  -56,  1004,  0,  0,  -1,  -9,  -26,  -40
2244854, 1710335477, "2024/3/13 13:11:17",  -3,  -60,  1003,  0,  0,  -1,  -10,  -25,  -39
2245054, 1710335477, "2024/3/13 13:11:17",  8,  -56,  1006,  0,  0,  0,  -11,  -27,  -40
2245254, 1710335477, "2024/3/13 13:11:17",  5,  -58,  1004,  0,  0,  -1,  -12,  -27,  -39
2245454, 1710335477, "2024/3/13 13:11:17",  6,  -59,  1003,  0,  0,  -1,  -9,  -25,  -40
2245654, 1710335478, "2024/3/13 13:11:18",  6,  -60,  1004,  0,  0,  0,  -10,  -26,  -39
2245854, 1710335478, "2024/3/13 13:11:18",  8,  -62,  1003,  0,  0,  0,  -9,  -25,  -41
2246054, 1710335478, "2024/3/13 13:11:18",  9,  -63,  1001,  0,  -1,  -1,  -9,  -26,  -38
2246254, 1710335478, "2024/3/13 13:11:18",  2,  -57,  1002,  0,  0,  -1,  -10,  -27,  -40
2246454, 1710335478, "2024/3/13 13:11:18",  5,  -61,  1002,  0,  0,  -1,  -11,  -25,  -39
2246654, 1710335479, "2024/3/13 13:11:19",  2,  -58,  1005,  0,  0,  -1,  -10,  -26,  -38
2246854, 1710335479, "2024/3/13 13:11:19",  3,  -57,  1004,  0,  0,  -1,  -10,  -26,  -40
2247054, 1710335479, "2024/3/13 13:11:19",  9,  -61,  1002,  0,  0,  0,  -9,  -24,  -39
2247254, 1710335479, "2024/3/13 13:11:19",  5,  -62,  1002,  0,  -1,  -1,  -10,  -27,  -39
2247454, 1710335479, "2024/3/13 13:11:19",  3,  -52,  1003,  0,  0,  0,  -9,  -25,  -39
2247654, 1710335480, "2024/3/13 13:11:20",  6,  -59,  1005,  0,  0,  -1,  -8,  -26,  -40
2247854, 1710335480, "2024/3/13 13:11:20",  5,  -56,  1003,  0,  0,  -1,  -9,  -27,  -41
2248054, 1710335480, "2024/3/13 13:11:20",  3,  -60,  1007,  0,  0,  -1,  -10,  -25,  -39
2248254, 1710335480, "2024/3/13 13:11:20",  6,  -64,  1001,  0,  0,  0,  -11,  -26,  -39
2248454, 1710335480, "2024/3/13 13:11:20",  8,  -52,  1004,  0,  -1,  -1,  -9,  -26,  -38
2248654, 1710335481, "2024/3/13 13:11:21",  7,  -57,  1004,  0,  0,  -1,  -10,  -26,  -40
2248854, 1710335481, "2024/3/13 13:11:21",  5,  -57,  1002,  0,  0,  -1,  -10,  -26,  -40
2249054, 1710335481, "2024/3/13 13:11:21",  8,  -62,  996,  0,  0,  -1,  -11,  -26,  -39
2249254, 1710335481, "2024/3/13 13:11:21",  6,  -54,  1003,  0,  0,  -1,  -11,  -25,  -40
2249454, 1710335481, "2024/3/13 13:11:21",  3,  -58,  1003,  0,  0,  -1,  -11,  -26,  -39
2249654, 1710335482, "2024/3/13 13:11:22",  4,  -54,  1002,  0,  0,  0,  -9,  -26,  -39
2249854, 1710335482, "2024/3/13 13:11:22",  2,  -58,  1004,  0,  -1,  -1,  -10,  -28,  -39
2250054, 1710335482, "2024/3/13 13:11:22",  4,  -63,  1004,  0,  0,  0,  -10,  -27,  -39
2250254, 1710335482, "2024/3/13 13:11:22",  5,  -58,  1004,  0,  -1,  -1,  -11,  -25,  -38
2250454, 1710335482, "2024/3/13 13:11:22",  5,  -56,  1002,  0,  0,  -1,  -11,  -27,  -39
2250654, 1710335483, "2024/3/13 13:11:23",  7,  -63,  1002,  0,  0,  -1,  -11,  -26,  -39
2250854, 1710335483, "2024/3/13 13:11:23",  3,  -63,  1000,  0,  -1,  -1,  -10,  -26,  -39
2251054, 1710335483, "2024/3/13 13:11:23",  3,  -60,  1002,  0,  0,  0,  -11,  -26,  -39
2251254, 1710335483, "2024/3/13 13:11:23",  6,  -53,  1001,  0,  -1,  -1,  -9,  -27,  -40
2251454, 1710335483, "2024/3/13 13:11:23",  5,  -58,  1000,  0,  0,  0,  -12,  -27,  -40
2251654, 1710335484, "2024/3/13 13:11:24",  6,  -54,  1000,  0,  0,  0,  -12,  -26,  -39
2251854, 1710335484, "2024/3/13 13:11:24",  0,  -57,  1002,  0,  0,  -1,  -9,  -27,  -38
2252054, 1710335484, "2024/3/13 13:11:24",  3,  -56,  1006,  0,  0,  -1,  -9,  -27,  -40
2252254, 1710335484, "2024/3/13 13:11:24",  5,  -60,  1005,  0,  0,  0,  -10,  -26,  -39
2252454, 1710335484, "2024/3/13 13:11:24",  6,  -55,  1002,  0,  0,  0,  -9,  -27,  -39
2252654, 1710335485, "2024/3/13 13:11:25",  7,  -59,  1004,  0,  0,  0,  -10,  -27,  -39
2252854, 1710335485, "2024/3/13 13:11:25",  7,  -59,  1007,  0,  0,  -1,  -11,  -27,  -39
2253054, 1710335485, "2024/3/13 13:11:25",  2,  -59,  1000,  0,  0,  -1,  -9,  -26,  -40
2253254, 1710335485, "2024/3/13 13:11:25",  7,  -57,  1002,  0,  0,  -1,  -9,  -26,  -39
2253454, 1710335485, "2024/3/13 13:11:25",  6,  -54,  1004,  0,  0,  -1,  -9,  -26,  -40
2253654, 1710335486, "2024/3/13 13:11:26",  7,  -55,  1005,  0,  0,  0,  -9,  -27,  -38
2253854, 1710335486, "2024/3/13 13:11:26",  5,  -57,  1001,  0,  0,  -1,  -10,  -25,  -38
2254054, 1710335486, "2024/3/13 13:11:26",  3,  -56,  1003,  0,  0,  0,  -10,  -27,  -40
2254254, 1710335486, "2024/3/13 13:11:26",  5,  -58,  1003,  0,  0,  0,  -11,  -25,  -39
2254454, 1710335486, "2024/3/13 13:11:26",  9,  -52,  1006,  0,  0,  -1,  -10,  -27,  -39
2254654, 1710335487, "2024/3/13 13:11:27",  3,  -56,  1002,  0,  0,  0,  -11,  -26,  -40
2254854, 1710335487, "2024/3/13 13:11:27",  5,  -57,  1002,  0,  0,  0,  -9,  -26,  -40
2255054, 1710335487, "2024/3/13 13:11:27",  0,  -59,  1002,  0,  0,  -1,  -9,  -25,  -39
2255254, 1710335487, "2024/3/13 13:11:27",  6,  -60,  1001,  0,  0,  -1,  -11,  -27,  -40
2255454, 1710335487, "2024/3/13 13:11:27",  8,  -64,  1000,  0,  0,  0,  -10,  -25,  -40
2255654, 1710335488, "2024/3/13 13:11:28",  4,  -56,  1002,  0,  -1,  -1,  -11,  -26,  -38
2255854, 1710335488, "2024/3/13 13:11:28",  2,  -56,  1001,  0,  0,  -1,  -10,  -26,  -38
2256054, 1710335488, "2024/3/13 13:11:28",  5,  -56,  1003,  0,  0,  0,  -9,  -28,  -39
2256254, 1710335488, "2024/3/13 13:11:28",  4,  -61,  1005,  0,  0,  -1,  -11,  -25,  -39
2256454, 1710335488, "2024/3/13 13:11:28",  3,  -59,  1003,  0,  0,  -1,  -8,  -26,  -39
2256654, 1710335489, "2024/3/13 13:11:29",  3,  -59,  1002,  0,  0,  -1,  -9,  -26,  -39
2256854, 1710335489, "2024/3/13 13:11:29",  5,  -59,  1003,  0,  0,  -1,  -8,  -25,  -40
2257054, 1710335489, "2024/3/13 13:11:29",  4,  -61,  1003,  0,  0,  -1,  -10,  -25,  -40
2257254, 1710335489, "2024/3/13 13:11:29",  2,  -61,  1000,  0,  0,  -1,  -10,  -25,  -40
2257454, 1710335489, "2024/3/13 13:11:29",  8,  -59,  1001,  0,  0,  -1,  -10,  -27,  -39
2257654, 1710335490, "2024/3/13 13:11:30",  7,  -56,  1004,  0,  0,  -1,  -9,  -27,  -40
2257854, 1710335490, "2024/3/13 13:11:30",  9,  -62,  1004,  0,  0,  0,  -10,  -26,  -40
2258054, 1710335490, "2024/3/13 13:11:30",  5,  -59,  1004,  0,  -1,  0,  -11,  -26,  -38
2258254, 1710335490, "2024/3/13 13:11:30",  4,  -56,  1003,  0,  0,  -1,  -10,  -26,  -38
2258454, 1710335490, "2024/3/13 13:11:30",  4,  -58,  1005,  0,  0,  -1,  -10,  -25,  -39
2258654, 1710335491, "2024/3/13 13:11:31",  3,  -60,  1002,  0,  0,  -1,  -9,  -25,  -40
2258854, 1710335491, "2024/3/13 13:11:31",  5,  -57,  1005,  0,  0,  -1,  -9,  -26,  -40
2259054, 1710335491, "2024/3/13 13:11:31",  3,  -63,  1003,  0,  0,  -1,  -10,  -26,  -39
2259254, 1710335491, "2024/3/13 13:11:31",  7,  -59,  1002,  0,  0,  0,  -11,  -26,  -39
2259454, 1710335491, "2024/3/13 13:11:31",  4,  -56,  1005,  0,  0,  -1,  -10,  -26,  -40
2259654, 1710335492, "2024/3/13 13:11:32",  4,  -59,  1005,  0,  0,  -1,  -10,  -26,  -39
2259854, 1710335492, "2024/3/13 13:11:32",  7,  -58,  1003,  0,  0,  -1,  -11,  -25,  -37
2260054, 1710335492, "2024/3/13 13:11:32",  8,  -57,  1007,  0,  0,  0,  -10,  -27,  -40
2260254, 1710335492, "2024/3/13 13:11:32",  7,  -61,  1003,  0,  0,  -1,  -11,  -26,  -38
2260454, 1710335492, "2024/3/13 13:11:32",  3,  -60,  1003,  0,  0,  -1,  -9,  -27,  -39
2260654, 1710335493, "2024/3/13 13:11:33",  -2,  -56,  1003,  0,  0,  -1,  -10,  -25,  -40
2260854, 1710335493, "2024/3/13 13:11:33",  4,  -59,  1005,  0,  0,  -1,  -9,  -27,  -39
2261054, 1710335493, "2024/3/13 13:11:33",  10,  -57,  1004,  0,  0,  0,  -10,  -27,  -40
2261254, 1710335493, "2024/3/13 13:11:33",  6,  -61,  1006,  0,  0,  -1,  -10,  -26,  -40
2261454, 1710335493, "2024/3/13 13:11:33",  7,  -58,  1003,  0,  0,  -1,  -10,  -27,  -40
2261654, 1710335494, "2024/3/13 13:11:34",  5,  -56,  1001,  0,  0,  0,  -12,  -27,  -40
2261854, 1710335494, "2024/3/13 13:11:34",  4,  -59,  1006,  0,  0,  0,  -10,  -26,  -40
2262054, 1710335494, "2024/3/13 13:11:34",  5,  -61,  1005,  0,  0,  -1,  -10,  -26,  -39
2262254, 1710335494, "2024/3/13 13:11:34",  3,  -66,  1003,  0,  0,  -1,  -9,  -28,  -39
2262454, 1710335494, "2024/3/13 13:11:34",  6,  -57,  1000,  0,  -1,  -1,  -11,  -26,  -39
2262654, 1710335495, "2024/3/13 13:11:35",  7,  -63,  1007,  0,  0,  0,  -9,  -26,  -39
2262854, 1710335495, "2024/3/13 13:11:35",  6,  -59,  1002,  0,  0,  0,  -10,  -26,  -40
2263054, 1710335495, "2024/3/13 13:11:35",  6,  -61,  1003,  0,  0,  0,  -10,  -25,  -39
2263254, 1710335495, "2024/3/13 13:11:35",  2,  -61,  1007,  0,  0,  0,  -9,  -25,  -40
2263454, 1710335495, "2024/3/13 13:11:35",  6,  -55,  1004,  0,  0,  0,  -10,  -28,  -39
2263654, 1710335496, "2024/3/13 13:11:36",  5,  -57,  1005,  0,  0,  -1,  -11,  -26,  -39
2263854, 1710335496, "2024/3/13 13:11:36",  -1,  -59,  1003,  0,  0,  -1,  -9,  -27,  -40
2264054, 1710335496, "2024/3/13 13:11:36",  2,  -56,  1002,  0,  0,  -1,  -9,  -27,  -41
2264254, 1710335496, "2024/3/13 13:11:36",  4,  -60,  1004,  0,  0,  -1,  -11,  -25,  -39
2264454, 1710335496, "2024/3/13 13:11:36",  8,  -57,  1001,  0,  0,  -1,  -9,  -27,  -42
2264654, 1710335497, "2024/3/13 13:11:37",  7,  -57,  1006,  0,  0,  -1,  -11,  -26,  -38
2264854, 1710335497, "2024/3/13 13:11:37",  8,  -58,  1004,  0,  0,  -1,  -10,  -24,  -39
2265054, 1710335497, "2024/3/13 13:11:37",  4,  -60,  1002,  0,  0,  -1,  -9,  -27,  -39
2265254, 1710335497, "2024/3/13 13:11:37",  8,  -61,  1005,  0,  0,  -1,  -9,  -26,  -40
2265454, 1710335497, "2024/3/13 13:11:37",  2,  -57,  1000,  0,  0,  0,  -10,  -26,  -40
2265654, 1710335498, "2024/3/13 13:11:38",  4,  -64,  1003,  0,  0,  0,  -9,  -27,  -37
2265854, 1710335498, "2024/3/13 13:11:38",  6,  -56,  1003,  0,  0,  0,  -9,  -27,  -40
2266054, 1710335498, "2024/3/13 13:11:38",  7,  -58,  1005,  0,  0,  0,  -10,  -26,  -40
2266254, 1710335498, "2024/3/13 13:11:38",  3,  -58,  1002,  0,  -1,  0,  -9,  -26,  -37
2266454, 1710335498, "2024/3/13 13:11:38",  7,  -61,  1002,  0,  0,  -1,  -9,  -26,  -40
2266654, 1710335499, "2024/3/13 13:11:39",  1,  -56,  1002,  0,  0,  -1,  -10,  -25,  -39
2266854, 1710335499, "2024/3/13 13:11:39",  4,  -59,  1001,  0,  -1,  -1,  -9,  -24,  -41
2267054, 1710335499, "2024/3/13 13:11:39",  7,  -59,  1001,  0,  0,  -1,  -10,  -27,  -39
2267254, 1710335499, "2024/3/13 13:11:39",  4,  -59,  1003,  0,  -1,  -1,  -9,  -26,  -39
2267454, 1710335499, "2024/3/13 13:11:39",  1,  -58,  1002,  0,  0,  0,  -10,  -28,  -39
2267654, 1710335500, "2024/3/13 13:11:40",  6,  -55,  1001,  0,  0,  -1,  -9,  -25,  -38
2267854, 1710335500, "2024/3/13 13:11:40",  6,  -58,  999,  0,  0,  0,  -10,  -26,  -41
2268054, 1710335500, "2024/3/13 13:11:40",  3,  -57,  1002,  0,  0,  0,  -10,  -27,  -38
2268254, 1710335500, "2024/3/13 13:11:40",  5,  -57,  1001,  0,  0,  0,  -10,  -26,  -39
2268454, 1710335500, "2024/3/13 13:11:40",  12,  -54,  1002,  0,  -1,  -1,  -9,  -25,  -41
2268654, 1710335501, "2024/3/13 13:11:41",  4,  -61,  1007,  0,  0,  -1,  -10,  -25,  -39
2268854, 1710335501, "2024/3/13 13:11:41",  6,  -52,  1002,  0,  -1,  0,  -9,  -26,  -40
2269054, 1710335501, "2024/3/13 13:11:41",  6,  -57,  1006,  0,  0,  0,  -11,  -25,  -39
2269254, 1710335501, "2024/3/13 13:11:41",  7,  -62,  1008,  0,  0,  0,  -10,  -25,  -39
2269454, 1710335501, "2024/3/13 13:11:41",  7,  -57,  1009,  0,  0,  0,  -10,  -26,  -39
2269654, 1710335502, "2024/3/13 13:11:42",  6,  -57,  1004,  0,  0,  -1,  -10,  -27,  -39
2269854, 1710335502, "2024/3/13 13:11:42",  -1,  -57,  1003,  0,  -1,  -1,  -11,  -25,  -40
2270054, 1710335502, "2024/3/13 13:11:42",  1,  -62,  1003,  0,  0,  0,  -11,  -27,  -40
2270254, 1710335502, "2024/3/13 13:11:42",  6,  -55,  1002,  0,  0,  0,  -10,  -26,  -39
2270454, 1710335502, "2024/3/13 13:11:42",  8,  -57,  1003,  0,  0,  -1,  -10,  -26,  -38
2270654, 1710335503, "2024/3/13 13:11:43",  7,  -59,  1002,  0,  0,  0,  -9,  -26,  -38
2270854, 1710335503, "2024/3/13 13:11:43",  3,  -57,  1000,  0,  -1,  -1,  -10,  -27,  -39
2271054, 1710335503, "2024/3/13 13:11:43",  7,  -54,  1001,  0,  0,  -1,  -10,  -25,  -39
2271254, 1710335503, "2024/3/13 13:11:43",  4,  -62,  999,  0,  0,  0,  -9,  -27,  -39
2271454, 1710335503, "2024/3/13 13:11:43",  1,  -60,  1004,  0,  0,  -1,  -11,  -27,  -39
2271654, 1710335504, "2024/3/13 13:11:44",  9,  -65,  1003,  0,  0,  -1,  -10,  -26,  -38
2271854, 1710335504, "2024/3/13 13:11:44",  3,  -53,  1002,  0,  0,  -1,  -10,  -26,  -39
2272054, 1710335504, "2024/3/13 13:11:44",  1,  -56,  1003,  0,  0,  -1,  -10,  -26,  -40
2272254, 1710335504, "2024/3/13 13:11:44",  8,  -56,  1000,  0,  0,  0,  -10,  -25,  -39
2272454, 1710335504, "2024/3/13 13:11:44",  2,  -57,  1000,  0,  0,  0,  -11,  -26,  -39
2272654, 1710335505, "2024/3/13 13:11:45",  2,  -57,  1003,  0,  0,  0,  -11,  -25,  -39
2272854, 1710335505, "2024/3/13 13:11:45",  4,  -57,  1001,  0,  0,  -1,  -8,  -25,  -41
2273054, 1710335505, "2024/3/13 13:11:45",  4,  -55,  1005,  0,  0,  -1,  -11,  -24,  -40
2273254, 1710335505, "2024/3/13 13:11:45",  12,  -54,  1004,  0,  0,  -1,  -9,  -27,  -39
2273454, 1710335505, "2024/3/13 13:11:45",  6,  -60,  1005,  0,  0,  0,  -11,  -25,  -40
2273654, 1710335506, "2024/3/13 13:11:46",  2,  -59,  1003,  0,  0,  -1,  -9,  -26,  -39
2273854, 1710335506, "2024/3/13 13:11:46",  2,  -59,  1003,  0,  0,  0,  -11,  -27,  -38
2274054, 1710335506, "2024/3/13 13:11:46",  3,  -58,  1007,  0,  -1,  -1,  -11,  -27,  -39
2274254, 1710335506, "2024/3/13 13:11:46",  1,  -55,  1004,  0,  0,  -1,  -10,  -25,  -39
2274454, 1710335506, "2024/3/13 13:11:46",  4,  -54,  1000,  0,  0,  0,  -10,  -26,  -39
2274654, 1710335507, "2024/3/13 13:11:47",  1,  -58,  1005,  0,  0,  -1,  -9,  -26,  -39
2274854, 1710335507, "2024/3/13 13:11:47",  3,  -64,  1001,  0,  0,  -1,  -10,  -25,  -39
2275054, 1710335507, "2024/3/13 13:11:47",  10,  -65,  1002,  0,  0,  -1,  -10,  -26,  -39
2275254, 1710335507, "2024/3/13 13:11:47",  4,  -53,  1000,  0,  0,  0,  -10,  -25,  -40
2275454, 1710335507, "2024/3/13 13:11:47",  2,  -61,  1003,  0,  -1,  -1,  -10,  -27,  -39
2275654, 1710335508, "2024/3/13 13:11:48",  5,  -60,  1002,  0,  -1,  0,  -10,  -26,  -38
2275854, 1710335508, "2024/3/13 13:11:48",  7,  -61,  1003,  0,  0,  -1,  -9,  -27,  -39
2276054, 1710335508, "2024/3/13 13:11:48",  6,  -56,  1005,  0,  0,  -1,  -10,  -26,  -38
2276254, 1710335508, "2024/3/13 13:11:48",  -1,  -58,  1000,  0,  0,  -1,  -10,  -26,  -38
2276454, 1710335508, "2024/3/13 13:11:48",  4,  -59,  1002,  0,  0,  -1,  -9,  -25,  -38
2276654, 1710335509, "2024/3/13 13:11:49",  3,  -62,  1003,  0,  0,  -1,  -11,  -26,  -38
2276854, 1710335509, "2024/3/13 13:11:49",  2,  -61,  1004,  0,  0,  -1,  -10,  -27,  -38
2277054, 1710335509, "2024/3/13 13:11:49",  5,  -59,  1004,  0,  0,  -1,  -11,  -25,  -39
2277254, 1710335509, "2024/3/13 13:11:49",  7,  -62,  1001,  0,  0,  0,  -13,  -26,  -37
2277454, 1710335509, "2024/3/13 13:11:49",  7,  -54,  1000,  0,  -1,  -1,  -10,  -26,  -37
2277654, 1710335510, "2024/3/13 13:11:50",  7,  -61,  1003,  0,  0,  -1,  -10,  -27,  -38
2277854, 1710335510, "2024/3/13 13:11:50",  7,  -57,  1002,  0,  0,  -1,  -9,  -25,  -38
2278054, 1710335510, "2024/3/13 13:11:50",  9,  -54,  1003,  0,  0,  0,  -11,  -25,  -40
2278254, 1710335510, "2024/3/13 13:11:50",  5,  -53,  1002,  0,  0,  -1,  -9,  -27,  -37
2278454, 1710335510, "2024/3/13 13:11:50",  10,  -60,  1003,  0,  0,  -1,  -9,  -27,  -39
2278654, 1710335511, "2024/3/13 13:11:51",  5,  -55,  1001,  0,  0,  -1,  -10,  -26,  -39
2278854, 1710335511, "2024/3/13 13:11:51",  3,  -58,  1006,  0,  0,  -1,  -9,  -25,  -40
2279054, 1710335511, "2024/3/13 13:11:51",  5,  -54,  1005,  0,  -1,  -1,  -10,  -27,  -40
2279254, 1710335511, "2024/3/13 13:11:51",  7,  -58,  1006,  0,  -1,  -1,  -10,  -27,  -39
2279454, 1710335511, "2024/3/13 13:11:51",  4,  -60,  1000,  0,  0,  0,  -11,  -26,  -39
2279654, 1710335512, "2024/3/13 13:11:52",  8,  -55,  1005,  0,  0,  -1,  -10,  -25,  -40
2279854, 1710335512, "2024/3/13 13:11:52",  5,  -55,  1003,  0,  0,  -1,  -10,  -27,  -38
2280054, 1710335512, "2024/3/13 13:11:52",  4,  -60,  1005,  0,  0,  -1,  -9,  -27,  -39
2280254, 1710335512, "2024/3/13 13:11:52",  2,  -64,  1002,  0,  0,  -1,  -8,  -27,  -39
2280454, 1710335512, "2024/3/13 13:11:52",  6,  -57,  1003,  0,  0,  -1,  -9,  -26,  -38
2280654, 1710335513, "2024/3/13 13:11:53",  3,  -65,  1002,  0,  0,  -1,  -11,  -26,  -38
2280854, 1710335513, "2024/3/13 13:11:53",  8,  -56,  1005,  0,  0,  -1,  -9,  -26,  -39
2281054, 1710335513, "2024/3/13 13:11:53",  1,  -57,  1005,  0,  -1,  -1,  -11,  -26,  -40
2281254, 1710335513, "2024/3/13 13:11:53",  5,  -56,  1005,  0,  0,  -1,  -10,  -26,  -38
2281454, 1710335513, "2024/3/13 13:11:53",  5,  -62,  1003,  0,  -1,  -1,  -10,  -26,  -38
2281654, 1710335514, "2024/3/13 13:11:54",  5,  -56,  1003,  0,  0,  -1,  -10,  -26,  -39
2281854, 1710335514, "2024/3/13 13:11:54",  6,  -55,  1004,  0,  0,  -1,  -11,  -27,  -38
2282054, 1710335514, "2024/3/13 13:11:54",  4,  -56,  1007,  0,  0,  -1,  -11,  -25,  -39
2282254, 1710335514, "2024/3/13 13:11:54",  0,  -55,  1000,  0,  0,  -1,  -10,  -26,  -39
2282454, 1710335514, "2024/3/13 13:11:54",  8,  -61,  1005,  0,  0,  -1,  -11,  -26,  -38
2282654, 1710335515, "2024/3/13 13:11:55",  6,  -61,  1001,  0,  0,  -1,  -9,  -25,  -38
2282854, 1710335515, "2024/3/13 13:11:55",  0,  -60,  1003,  0,  0,  -1,  -9,  -25,  -39
2283054, 1710335515, "2024/3/13 13:11:55",  6,  -54,  1003,  0,  0,  -1,  -10,  -27,  -39
2283254, 1710335515, "2024/3/13 13:11:55",  9,  -56,  1004,  0,  0,  0,  -11,  -28,  -39
2283454, 1710335515, "2024/3/13 13:11:55",  9,  -60,  1002,  0,  0,  0,  -10,  -26,  -40
2283654, 1710335516, "2024/3/13 13:11:56",  6,  -60,  1007,  0,  0,  -1,  -10,  -26,  -38
2283854, 1710335516, "2024/3/13 13:11:56",  8,  -62,  1000,  0,  -1,  -1,  -10,  -28,  -39
2284054, 1710335516, "2024/3/13 13:11:56",  4,  -57,  999,  0,  0,  -1,  -9,  -26,  -39
2284254, 1710335516, "2024/3/13 13:11:56",  6,  -57,  1001,  0,  0,  0,  -10,  -25,  -40
2284454, 1710335516, "2024/3/13 13:11:56",  3,  -60,  1004,  0,  0,  0,  -10,  -25,  -38
2284654, 1710335517, "2024/3/13 13:11:57",  3,  -64,  1003,  0,  0,  0,  -10,  -27,  -39
2284854, 1710335517, "2024/3/13 13:11:57",  5,  -57,  1002,  0,  0,  0,  -9,  -25,  -39
2285054, 1710335517, "2024/3/13 13:11:57",  3,  -56,  1001,  0,  -1,  -1,  -9,  -26,  -38
2285254, 1710335517, "2024/3/13 13:11:57",  3,  -58,  1004,  0,  0,  -1,  -9,  -26,  -39
2285454, 1710335517, "2024/3/13 13:11:57",  6,  -59,  1005,  0,  0,  0,  -11,  -26,  -39
2285654, 1710335518, "2024/3/13 13:11:58",  2,  -57,  1006,  0,  0,  0,  -10,  -27,  -39
2285854, 1710335518, "2024/3/13 13:11:58",  7,  -59,  1002,  0,  0,  0,  -10,  -25,  -37
2286054, 1710335518, "2024/3/13 13:11:58",  4,  -57,  1008,  0,  0,  0,  -10,  -25,  -39
2286254, 1710335518, "2024/3/13 13:11:58",  4,  -56,  1001,  0,  0,  -1,  -10,  -27,  -38
2286454, 1710335518, "2024/3/13 13:11:58",  7,  -62,  1002,  0,  0,  -1,  -10,  -27,  -40
2286654, 1710335519, "2024/3/13 13:11:59",  6,  -56,  1000,  0,  0,  -1,  -11,  -27,  -38
2286854, 1710335519, "2024/3/13 13:11:59",  4,  -63,  1004,  0,  0,  0,  -10,  -26,  -38
2287054, 1710335519, "2024/3/13 13:11:59",  4,  -58,  1001,  0,  0,  0,  -10,  -27,  -40
2287254, 1710335519, "2024/3/13 13:11:59",  4,  -56,  1005,  0,  0,  -1,  -11,  -27,  -38
2287454, 1710335519, "2024/3/13 13:11:59",  8,  -55,  999,  0,  0,  -1,  -9,  -26,  -39
2287654, 1710335520, "2024/3/13 13:12:0",  1,  -61,  1003,  0,  0,  -1,  -9,  -25,  -38
2287854, 1710335520, "2024/3/13 13:12:0",  7,  -56,  1002,  0,  -1,  0,  -11,  -25,  -39
2288054, 1710335520, "2024/3/13 13:12:0",  3,  -54,  1004,  0,  0,  -1,  -10,  -27,  -38
2288254, 1710335520, "2024/3/13 13:12:0",  4,  -56,  1004,  0,  0,  -1,  -8,  -27,  -39
2288454, 1710335520, "2024/3/13 13:12:0",  4,  -57,  1004,  0,  0,  -1,  -11,  -27,  -39
2288654, 1710335521, "2024/3/13 13:12:1",  4,  -60,  1003,  0,  0,  -1,  -10,  -27,  -40
2288854, 1710335521, "2024/3/13 13:12:1",  7,  -56,  1005,  0,  0,  -1,  -11,  -26,  -39
2289054, 1710335521, "2024/3/13 13:12:1",  7,  -58,  1003,  0,  0,  -1,  -9,  -25,  -40
2289254, 1710335521, "2024/3/13 13:12:1",  7,  -54,  1006,  0,  0,  -1,  -10,  -27,  -38
2289454, 1710335521, "2024/3/13 13:12:1",  2,  -54,  1005,  0,  0,  -1,  -9,  -26,  -39
2289654, 1710335522, "2024/3/13 13:12:2",  2,  -58,  1003,  0,  0,  0,  -10,  -26,  -37
2289854, 1710335522, "2024/3/13 13:12:2",  3,  -58,  1000,  0,  0,  -1,  -11,  -27,  -39
2290054, 1710335522, "2024/3/13 13:12:2",  5,  -55,  997,  0,  0,  -1,  -10,  -26,  -39
2290254, 1710335522, "2024/3/13 13:12:2",  5,  -62,  1007,  0,  0,  -1,  -12,  -27,  -39
2290454, 1710335522, "2024/3/13 13:12:2",  2,  -57,  1004,  0,  0,  0,  -9,  -25,  -39
2290654, 1710335523, "2024/3/13 13:12:3",  6,  -59,  1003,  0,  0,  -1,  -9,  -26,  -38
2290854, 1710335523, "2024/3/13 13:12:3",  5,  -53,  1002,  0,  0,  0,  -9,  -25,  -36
2291054, 1710335523, "2024/3/13 13:12:3",  6,  -63,  1001,  0,  0,  0,  -10,  -27,  -39
2291254, 1710335523, "2024/3/13 13:12:3",  6,  -61,  1006,  0,  0,  -1,  -9,  -26,  -40
2291454, 1710335523, "2024/3/13 13:12:3",  3,  -50,  1004,  0,  0,  0,  -10,  -25,  -38
2291654, 1710335524, "2024/3/13 13:12:4",  1,  -58,  1005,  0,  0,  -1,  -9,  -25,  -39
2291854, 1710335524, "2024/3/13 13:12:4",  1,  -56,  1004,  0,  0,  -1,  -9,  -26,  -40
2292054, 1710335524, "2024/3/13 13:12:4",  4,  -58,  1003,  0,  0,  -1,  -9,  -26,  -38
2292254, 1710335524, "2024/3/13 13:12:4",  7,  -60,  1003,  0,  0,  -1,  -11,  -25,  -39
2292454, 1710335524, "2024/3/13 13:12:4",  8,  -55,  1001,  0,  0,  -1,  -9,  -25,  -39
2292654, 1710335525, "2024/3/13 13:12:5",  4,  -59,  1004,  0,  0,  -1,  -11,  -25,  -39
2292854, 1710335525, "2024/3/13 13:12:5",  5,  -60,  1000,  0,  -1,  -1,  -8,  -25,  -38
2293054, 1710335525, "2024/3/13 13:12:5",  5,  -64,  1003,  0,  0,  -1,  -9,  -26,  -39
2293254, 1710335525, "2024/3/13 13:12:5",  3,  -59,  1004,  0,  -1,  -1,  -9,  -26,  -40
2293454, 1710335525, "2024/3/13 13:12:5",  0,  -56,  1006,  0,  -1,  0,  -10,  -27,  -39
2293654, 1710335526, "2024/3/13 13:12:6",  3,  -59,  1007,  0,  0,  -1,  -10,  -27,  -38
2293854, 1710335526, "2024/3/13 13:12:6",  2,  -59,  1005,  0,  0,  0,  -10,  -26,  -38
2294054, 1710335526, "2024/3/13 13:12:6",  4,  -57,  1000,  0,  0,  -1,  -10,  -26,  -38
2294254, 1710335526, "2024/3/13 13:12:6",  5,  -57,  1000,  0,  -1,  -1,  -10,  -27,  -40
2294454, 1710335526, "2024/3/13 13:12:6",  9,  -60,  1003,  0,  0,  -1,  -10,  -26,  -39
2294654, 1710335527, "2024/3/13 13:12:7",  0,  -53,  1003,  0,  0,  0,  -10,  -28,  -39
2294854, 1710335527, "2024/3/13 13:12:7",  4,  -56,  1002,  0,  0,  0,  -9,  -26,  -38
2295054, 1710335527, "2024/3/13 13:12:7",  8,  -62,  1004,  1,  -1,  -1,  -9,  -26,  -38
2295254, 1710335527, "2024/3/13 13:12:7",  7,  -59,  1000,  0,  -1,  -1,  -8,  -26,  -40
2295454, 1710335527, "2024/3/13 13:12:7",  5,  -57,  1002,  0,  -1,  -1,  -9,  -26,  -40
2295654, 1710335528, "2024/3/13 13:12:8",  7,  -61,  1000,  0,  -1,  0,  -10,  -26,  -39
2295854, 1710335528, "2024/3/13 13:12:8",  5,  -51,  1003,  0,  0,  -1,  -9,  -25,  -40
2296054, 1710335528, "2024/3/13 13:12:8",  3,  -59,  1004,  0,  0,  0,  -9,  -26,  -39
2296254, 1710335528, "2024/3/13 13:12:8",  5,  -59,  1000,  0,  0,  0,  -12,  -25,  -37
2296454, 1710335528, "2024/3/13 13:12:8",  5,  -62,  1001,  0,  0,  -1,  -11,  -27,  -39
2296654, 1710335529, "2024/3/13 13:12:9",  0,  -59,  1002,  0,  0,  0,  -9,  -26,  -38
2296854, 1710335529, "2024/3/13 13:12:9",  7,  -62,  1002,  0,  -1,  0,  -9,  -26,  -38
2297054, 1710335529, "2024/3/13 13:12:9",  9,  -64,  1003,  0,  0,  -1,  -10,  -26,  -39
2297254, 1710335529, "2024/3/13 13:12:9",  6,  -56,  1004,  0,  0,  -1,  -10,  -28,  -38
2297454, 1710335529, "2024/3/13 13:12:9",  5,  -59,  1003,  0,  0,  0,  -10,  -26,  -40
2297654, 1710335530, "2024/3/13 13:12:10",  5,  -58,  1004,  0,  0,  0,  -9,  -26,  -40
2297854, 1710335530, "2024/3/13 13:12:10",  0,  -58,  1006,  0,  0,  -1,  -11,  -27,  -39
2298054, 1710335530, "2024/3/13 13:12:10",  1,  -60,  1002,  0,  0,  -1,  -10,  -26,  -39
2298254, 1710335530, "2024/3/13 13:12:10",  6,  -57,  1002,  0,  0,  -1,  -11,  -27,  -37
2298454, 1710335530, "2024/3/13 13:12:10",  3,  -62,  1002,  0,  0,  0,  -10,  -26,  -39
2298654, 1710335531, "2024/3/13 13:12:11",  4,  -62,  1003,  0,  0,  -1,  -11,  -24,  -40
2298854, 1710335531, "2024/3/13 13:12:11",  6,  -61,  1003,  0,  0,  0,  -10,  -27,  -38
2299054, 1710335531, "2024/3/13 13:12:11",  5,  -59,  1002,  0,  0,  0,  -9,  -26,  -38
2299254, 1710335531, "2024/3/13 13:12:11",  3,  -56,  1005,  0,  0,  0,  -11,  -26,  -39
2299454, 1710335531, "2024/3/13 13:12:11",  7,  -63,  1004,  0,  0,  -1,  -10,  -26,  -39
2299654, 1710335532, "2024/3/13 13:12:12",  6,  -60,  1004,  0,  -1,  -1,  -10,  -27,  -39
2299854, 1710335532, "2024/3/13 13:12:12",  3,  -60,  1004,  0,  0,  0,  -11,  -24,  -40
2300054, 1710335532, "2024/3/13 13:12:12",  2,  -56,  1004,  0,  0,  0,  -10,  -27,  -38
2300254, 1710335532, "2024/3/13 13:12:12",  7,  -58,  1006,  0,  0,  -1,  -9,  -27,  -40
2300454, 1710335532, "2024/3/13 13:12:12",  3,  -66,  1007,  0,  0,  -1,  -10,  -26,  -39
2300654, 1710335533, "2024/3/13 13:12:13",  3,  -57,  1004,  0,  0,  0,  -10,  -27,  -40
2300854, 1710335533, "2024/3/13 13:12:13",  8,  -61,  1009,  0,  0,  0,  -11,  -27,  -39
2301054, 1710335533, "2024/3/13 13:12:13",  5,  -65,  1004,  0,  0,  -1,  -9,  -26,  -40
2301254, 1710335533, "2024/3/13 13:12:13",  6,  -58,  1001,  0,  0,  0,  -10,  -24,  -39
2301454, 1710335533, "2024/3/13 13:12:13",  4,  -62,  1006,  0,  0,  0,  -10,  -26,  -40
2301654, 1710335534, "2024/3/13 13:12:14",  3,  -58,  1004,  0,  0,  -1,  -9,  -25,  -37
2301854, 1710335534, "2024/3/13 13:12:14",  5,  -58,  1002,  0,  0,  -1,  -10,  -26,  -40
2302054, 1710335534, "2024/3/13 13:12:14",  7,  -58,  1002,  0,  0,  -1,  -10,  -27,  -40
2302254, 1710335534, "2024/3/13 13:12:14",  7,  -58,  1005,  0,  -1,  0,  -10,  -27,  -41
2302454, 1710335534, "2024/3/13 13:12:14",  3,  -55,  1006,  0,  0,  0,  -9,  -25,  -39
2302654, 1710335535, "2024/3/13 13:12:15",  3,  -54,  1004,  0,  0,  -1,  -11,  -26,  -39
2302854, 1710335535, "2024/3/13 13:12:15",  3,  -56,  1004,  0,  -1,  -1,  -9,  -27,  -40
2303054, 1710335535, "2024/3/13 13:12:15",  4,  -60,  1003,  0,  0,  -1,  -9,  -28,  -40
2303254, 1710335535, "2024/3/13 13:12:15",  4,  -60,  1001,  0,  0,  -1,  -11,  -26,  -39
2303454, 1710335535, "2024/3/13 13:12:15",  6,  -58,  1003,  1,  0,  -1,  -10,  -26,  -40
2303654, 1710335536, "2024/3/13 13:12:16",  1,  -56,  1001,  0,  0,  0,  -10,  -26,  -41
2303854, 1710335536, "2024/3/13 13:12:16",  4,  -62,  1005,  0,  -1,  -1,  -9,  -26,  -40
2304054, 1710335536, "2024/3/13 13:12:16",  2,  -61,  999,  0,  0,  0,  -10,  -26,  -41
2304254, 1710335536, "2024/3/13 13:12:16",  8,  -53,  1001,  0,  0,  -1,  -11,  -27,  -39
2304454, 1710335536, "2024/3/13 13:12:16",  -5,  -62,  1005,  0,  0,  0,  -9,  -26,  -38
2304654, 1710335537, "2024/3/13 13:12:17",  3,  -59,  1004,  0,  0,  -1,  -12,  -25,  -38
2304854, 1710335537, "2024/3/13 13:12:17",  2,  -58,  1002,  0,  0,  -1,  -11,  -27,  -41
2305054, 1710335537, "2024/3/13 13:12:17",  8,  -56,  1004,  0,  0,  -1,  -10,  -25,  -41
2305254, 1710335537, "2024/3/13 13:12:17",  6,  -59,  1000,  0,  0,  0,  -11,  -26,  -40
2305454, 1710335537, "2024/3/13 13:12:17",  4,  -53,  1005,  0,  0,  -1,  -9,  -25,  -40
2305654, 1710335538, "2024/3/13 13:12:18",  7,  -58,  1002,  0,  0,  0,  -10,  -27,  -39
2305854, 1710335538, "2024/3/13 13:12:18",  5,  -62,  1002,  0,  0,  -1,  -9,  -25,  -39
2306054, 1710335538, "2024/3/13 13:12:18",  8,  -64,  1002,  0,  0,  -1,  -8,  -25,  -38
2306254, 1710335538, "2024/3/13 13:12:18",  4,  -59,  1003,  0,  0,  0,  -10,  -26,  -39
2306454, 1710335538, "2024/3/13 13:12:18",  5,  -55,  1002,  0,  -1,  -1,  -9,  -26,  -40
2306654, 1710335539, "2024/3/13 13:12:19",  2,  -56,  1006,  0,  0,  -1,  -11,  -26,  -39
2306854, 1710335539, "2024/3/13 13:12:19",  4,  -55,  1005,  0,  0,  -1,  -10,  -26,  -40
2307054, 1710335539, "2024/3/13 13:12:19",  6,  -57,  1005,  0,  0,  -1,  -8,  -27,  -38
2307254, 1710335539, "2024/3/13 13:12:19",  6,  -65,  1001,  0,  0,  -1,  -11,  -27,  -41
2307454, 1710335539, "2024/3/13 13:12:19",  2,  -61,  1006,  0,  0,  0,  -11,  -25,  -40
2307654, 1710335540, "2024/3/13 13:12:20",  7,  -57,  1002,  0,  0,  -1,  -10,  -26,  -40
2307854, 1710335540, "2024/3/13 13:12:20",  4,  -63,  1005,  0,  0,  -1,  -11,  -26,  -41
2308054, 1710335540, "2024/3/13 13:12:20",  9,  -58,  1003,  0,  0,  0,  -10,  -26,  -42
2308254, 1710335540, "2024/3/13 13:12:20",  5,  -59,  1002,  0,  0,  0,  -10,  -26,  -40
2308454, 1710335540, "2024/3/13 13:12:20",  4,  -58,  1005,  0,  0,  -1,  -10,  -27,  -41
2308654, 1710335541, "2024/3/13 13:12:21",  4,  -56,  1002,  0,  0,  -1,  -10,  -25,  -39
2308854, 1710335541, "2024/3/13 13:12:21",  8,  -54,  1003,  0,  -1,  -1,  -10,  -27,  -41
2309054, 1710335541, "2024/3/13 13:12:21",  4,  -51,  1002,  0,  0,  -1,  -9,  -27,  -41
2309254, 1710335541, "2024/3/13 13:12:21",  3,  -56,  1002,  0,  0,  -1,  -10,  -26,  -40
2309454, 1710335541, "2024/3/13 13:12:21",  6,  -60,  1001,  0,  -1,  -1,  -10,  -27,  -40
2309654, 1710335542, "2024/3/13 13:12:22",  6,  -58,  1006,  0,  0,  -1,  -10,  -27,  -41
2309854, 1710335542, "2024/3/13 13:12:22",  2,  -59,  1006,  0,  0,  -1,  -9,  -27,  -39
2310054, 1710335542, "2024/3/13 13:12:22",  4,  -66,  1005,  0,  0,  0,  -9,  -26,  -41
2310254, 1710335542, "2024/3/13 13:12:22",  5,  -56,  1000,  0,  0,  -1,  -11,  -27,  -40
2310454, 1710335542, "2024/3/13 13:12:22",  3,  -58,  1004,  0,  -1,  -1,  -9,  -27,  -38
2310654, 1710335543, "2024/3/13 13:12:23",  2,  -53,  1004,  0,  0,  -1,  -11,  -25,  -41
2310854, 1710335543, "2024/3/13 13:12:23",  8,  -58,  1001,  0,  0,  -1,  -9,  -27,  -41
2311054, 1710335543, "2024/3/13 13:12:23",  6,  -58,  1004,  0,  0,  -1,  -9,  -26,  -41
2311254, 1710335543, "2024/3/13 13:12:23",  9,  -59,  1002,  0,  -1,  0,  -10,  -25,  -40
2311454, 1710335543, "2024/3/13 13:12:23",  4,  -61,  1003,  0,  0,  -1,  -11,  -25,  -40
2311654, 1710335544, "2024/3/13 13:12:24",  2,  -57,  1004,  0,  0,  -1,  -9,  -26,  -40
2311854, 1710335544, "2024/3/13 13:12:24",  5,  -55,  1008,  0,  0,  0,  -10,  -27,  -38
2312054, 1710335544, "2024/3/13 13:12:24",  1,  -62,  1006,  0,  0,  -1,  -10,  -27,  -39
2312254, 1710335544, "2024/3/13 13:12:24",  5,  -55,  1005,  0,  0,  0,  -11,  -26,  -38
2312454, 1710335544, "2024/3/13 13:12:24",  2,  -63,  1002,  0,  0,  -1,  -9,  -27,  -39
2312654, 1710335545, "2024/3/13 13:12:25",  8,  -57,  1003,  0,  0,  -1,  -10,  -26,  -41
2312854, 1710335545, "2024/3/13 13:12:25",  3,  -54,  1002,  0,  0,  0,  -11,  -25,  -40
2313054, 1710335545, "2024/3/13 13:12:25",  3,  -55,  1004,  0,  0,  -1,  -11,  -27,  -40
2313254, 1710335545, "2024/3/13 13:12:25",  8,  -60,  1006,  0,  0,  0,  -9,  -25,  -40
2313454, 1710335545, "2024/3/13 13:12:25",  5,  -57,  1003,  0,  0,  -1,  -9,  -27,  -39
2313654, 1710335546, "2024/3/13 13:12:26",  4,  -60,  1006,  0,  0,  0,  -10,  -26,  -40
2313854, 1710335546, "2024/3/13 13:12:26",  4,  -57,  1005,  0,  0,  -1,  -12,  -25,  -39
2314054, 1710335546, "2024/3/13 13:12:26",  3,  -56,  1007,  0,  0,  -1,  -10,  -26,  -39
2314254, 1710335546, "2024/3/13 13:12:26",  3,  -53,  1002,  0,  0,  -1,  -9,  -25,  -39
2314454, 1710335546, "2024/3/13 13:12:26",  6,  -52,  1002,  0,  0,  -1,  -11,  -27,  -39
2314654, 1710335547, "2024/3/13 13:12:27",  5,  -57,  1003,  0,  0,  -1,  -9,  -26,  -40
2314854, 1710335547, "2024/3/13 13:12:27",  3,  -63,  1002,  0,  0,  -1,  -11,  -25,  -40
2315054, 1710335547, "2024/3/13 13:12:27",  6,  -58,  1004,  0,  0,  -1,  -11,  -27,  -39
2315254, 1710335547, "2024/3/13 13:12:27",  5,  -58,  1007,  0,  0,  0,  -10,  -25,  -39
2315454, 1710335547, "2024/3/13 13:12:27",  5,  -60,  1005,  0,  0,  -1,  -10,  -26,  -39
2315654, 1710335548, "2024/3/13 13:12:28",  6,  -61,  1006,  0,  0,  -1,  -10,  -26,  -39
2315854, 1710335548, "2024/3/13 13:12:28",  3,  -62,  1003,  0,  0,  0,  -10,  -27,  -39
2316054, 1710335548, "2024/3/13 13:12:28",  1,  -59,  1004,  0,  0,  0,  -10,  -26,  -39
2316254, 1710335548, "2024/3/13 13:12:28",  6,  -61,  1003,  0,  0,  -1,  -9,  -28,  -39
2316454, 1710335548, "2024/3/13 13:12:28",  5,  -57,  1007,  0,  0,  0,  -10,  -26,  -39
2316654, 1710335549, "2024/3/13 13:12:29",  3,  -62,  1004,  0,  0,  -1,  -9,  -27,  -38
2316854, 1710335549, "2024/3/13 13:12:29",  3,  -58,  1004,  0,  -1,  -1,  -10,  -26,  -39
2317054, 1710335549, "2024/3/13 13:12:29",  8,  -59,  1002,  0,  0,  -1,  -12,  -26,  -39
2317254, 1710335549, "2024/3/13 13:12:29",  9,  -53,  1004,  0,  0,  -1,  -11,  -26,  -39
2317454, 1710335549, "2024/3/13 13:12:29",  3,  -66,  1007,  0,  0,  -1,  -10,  -28,  -40
2317654, 1710335550, "2024/3/13 13:12:30",  6,  -60,  1002,  0,  0,  0,  -11,  -26,  -39
2317854, 1710335550, "2024/3/13 13:12:30",  -1,  -62,  1002,  0,  0,  0,  -9,  -26,  -39
2318054, 1710335550, "2024/3/13 13:12:30",  0,  -52,  1005,  0,  -1,  -1,  -11,  -27,  -41
2318254, 1710335550, "2024/3/13 13:12:30",  4,  -58,  1000,  0,  -1,  -1,  -9,  -28,  -42
2318454, 1710335550, "2024/3/13 13:12:30",  4,  -54,  1001,  0,  0,  -1,  -9,  -26,  -40
2318654, 1710335551, "2024/3/13 13:12:31",  4,  -59,  1007,  0,  0,  0,  -10,  -26,  -38
2318854, 1710335551, "2024/3/13 13:12:31",  4,  -59,  1008,  0,  0,  -1,  -10,  -27,  -39
2319054, 1710335551, "2024/3/13 13:12:31",  6,  -58,  1003,  0,  0,  0,  -10,  -26,  -40
2319254, 1710335551, "2024/3/13 13:12:31",  4,  -56,  1007,  0,  0,  -1,  -9,  -25,  -41
2319454, 1710335551, "2024/3/13 13:12:31",  7,  -59,  1002,  0,  0,  0,  -9,  -26,  -40
2319654, 1710335552, "2024/3/13 13:12:32",  4,  -60,  1000,  0,  0,  -1,  -10,  -26,  -39
2319854, 1710335552, "2024/3/13 13:12:32",  2,  -60,  1004,  0,  0,  0,  -11,  -26,  -38
2320054, 1710335552, "2024/3/13 13:12:32",  5,  -58,  1004,  0,  0,  0,  -10,  -25,  -38
2320254, 1710335552, "2024/3/13 13:12:32",  5,  -62,  1006,  0,  0,  -1,  -11,  -24,  -39
2320454, 1710335552, "2024/3/13 13:12:32",  5,  -60,  1003,  0,  0,  0,  -8,  -25,  -40
2320654, 1710335553, "2024/3/13 13:12:33",  6,  -60,  1005,  0,  -1,  -1,  -12,  -27,  -42
2320854, 1710335553, "2024/3/13 13:12:33",  4,  -60,  1004,  0,  0,  -1,  -10,  -27,  -40
2321054, 1710335553, "2024/3/13 13:12:33",  3,  -58,  1005,  0,  -1,  -1,  -10,  -25,  -39
2321254, 1710335553, "2024/3/13 13:12:33",  4,  -57,  1000,  0,  0,  0,  -10,  -26,  -40
2321454, 1710335553, "2024/3/13 13:12:33",  4,  -55,  1006,  0,  0,  -1,  -10,  -25,  -39
2321654, 1710335554, "2024/3/13 13:12:34",  5,  -60,  1004,  0,  0,  -1,  -11,  -26,  -40
2321854, 1710335554, "2024/3/13 13:12:34",  2,  -57,  1004,  0,  0,  -1,  -10,  -25,  -40
2322054, 1710335554, "2024/3/13 13:12:34",  5,  -58,  1000,  0,  0,  0,  -11,  -28,  -40
2322254, 1710335554, "2024/3/13 13:12:34",  0,  -65,  1003,  0,  0,  -1,  -11,  -27,  -39
2322454, 1710335554, "2024/3/13 13:12:34",  0,  -61,  1005,  0,  0,  -1,  -11,  -26,  -41
2322654, 1710335555, "2024/3/13 13:12:35",  7,  -61,  1005,  0,  0,  -1,  -11,  -26,  -40
2322854, 1710335555, "2024/3/13 13:12:35",  7,  -58,  1003,  0,  0,  -1,  -9,  -26,  -40
2323054, 1710335555, "2024/3/13 13:12:35",  3,  -58,  1004,  0,  0,  0,  -10,  -27,  -39
2323254, 1710335555, "2024/3/13 13:12:35",  6,  -64,  1004,  0,  0,  -1,  -11,  -28,  -38
2323454, 1710335555, "2024/3/13 13:12:35",  7,  -57,  1002,  0,  0,  -1,  -10,  -25,  -40
2323654, 1710335556, "2024/3/13 13:12:36",  3,  -55,  1000,  0,  0,  -1,  -11,  -26,  -39
2323854, 1710335556, "2024/3/13 13:12:36",  4,  -57,  1004,  0,  0,  0,  -10,  -25,  -40
2324054, 1710335556, "2024/3/13 13:12:36",  3,  -58,  1000,  0,  0,  -1,  -11,  -26,  -40
2324254, 1710335556, "2024/3/13 13:12:36",  9,  -55,  1001,  0,  0,  -1,  -11,  -27,  -41
2324454, 1710335556, "2024/3/13 13:12:36",  5,  -55,  1005,  0,  0,  -1,  -10,  -26,  -40
2324654, 1710335557, "2024/3/13 13:12:37",  2,  -56,  1001,  0,  0,  0,  -9,  -25,  -39
2324854, 1710335557, "2024/3/13 13:12:37",  7,  -56,  1000,  0,  0,  -1,  -10,  -27,  -40
2325054, 1710335557, "2024/3/13 13:12:37",  5,  -56,  1002,  0,  0,  -1,  -10,  -25,  -40
2325254, 1710335557, "2024/3/13 13:12:37",  5,  -57,  999,  0,  0,  0,  -11,  -26,  -40
2325454, 1710335557, "2024/3/13 13:12:37",  1,  -58,  1003,  0,  0,  -1,  -10,  -27,  -39
2325654, 1710335558, "2024/3/13 13:12:38",  4,  -62,  1002,  0,  0,  -1,  -9,  -25,  -39
2325854, 1710335558, "2024/3/13 13:12:38",  6,  -55,  1000,  0,  0,  0,  -10,  -27,  -41
2326054, 1710335558, "2024/3/13 13:12:38",  4,  -55,  1006,  0,  0,  0,  -10,  -26,  -39
2326254, 1710335558, "2024/3/13 13:12:38",  5,  -58,  1001,  0,  -1,  -1,  -10,  -24,  -41
2326454, 1710335558, "2024/3/13 13:12:38",  1,  -60,  999,  0,  0,  -1,  -10,  -26,  -40
2326654, 1710335559, "2024/3/13 13:12:39",  7,  -58,  1002,  0,  -1,  -1,  -10,  -25,  -41
2326854, 1710335559, "2024/3/13 13:12:39",  2,  -56,  1001,  0,  -1,  0,  -9,  -24,  -39
2327054, 1710335559, "2024/3/13 13:12:39",  5,  -52,  1004,  0,  0,  -1,  -9,  -26,  -40
2327254, 1710335559, "2024/3/13 13:12:39",  5,  -52,  1006,  0,  -1,  -1,  -9,  -27,  -41
2327454, 1710335559, "2024/3/13 13:12:39",  0,  -60,  1002,  0,  0,  -1,  -11,  -25,  -40
2327654, 1710335560, "2024/3/13 13:12:40",  8,  -61,  1004,  0,  -1,  -1,  -9,  -26,  -37
2327854, 1710335560, "2024/3/13 13:12:40",  7,  -58,  1006,  0,  0,  -1,  -10,  -26,  -40
2328054, 1710335560, "2024/3/13 13:12:40",  9,  -58,  1005,  0,  0,  -1,  -11,  -27,  -40
2328254, 1710335560, "2024/3/13 13:12:40",  5,  -59,  1005,  0,  0,  0,  -10,  -27,  -41
2328454, 1710335560, "2024/3/13 13:12:40",  2,  -52,  1004,  0,  0,  -1,  -11,  -26,  -39
2328654, 1710335561, "2024/3/13 13:12:41",  0,  -52,  1003,  0,  0,  -1,  -10,  -26,  -40
2328854, 1710335561, "2024/3/13 13:12:41",  1,  -60,  1004,  0,  0,  0,  -10,  -26,  -41
2329054, 1710335561, "2024/3/13 13:12:41",  5,  -58,  1004,  0,  0,  0,  -12,  -27,  -40
2329254, 1710335561, "2024/3/13 13:12:41",  9,  -56,  1011,  0,  0,  0,  -11,  -25,  -40
2329454, 1710335561, "2024/3/13 13:12:41",  6,  -51,  1004,  0,  0,  0,  -11,  -25,  -40
2329654, 1710335562, "2024/3/13 13:12:42",  2,  -61,  1003,  0,  0,  -1,  -10,  -25,  -40
2329854, 1710335562, "2024/3/13 13:12:42",  2,  -57,  1000,  0,  0,  0,  -11,  -25,  -39
2330054, 1710335562, "2024/3/13 13:12:42",  4,  -61,  1002,  0,  0,  -1,  -11,  -25,  -41
2330254, 1710335562, "2024/3/13 13:12:42",  4,  -61,  1000,  0,  0,  0,  -12,  -25,  -40
2330454, 1710335562, "2024/3/13 13:12:42",  4,  -60,  1006,  0,  0,  -1,  -11,  -27,  -41
2330654, 1710335563, "2024/3/13 13:12:43",  7,  -52,  1003,  0,  0,  -1,  -10,  -27,  -40
2330854, 1710335563, "2024/3/13 13:12:43",  7,  -54,  1003,  0,  0,  -1,  -9,  -25,  -40
2331054, 1710335563, "2024/3/13 13:12:43",  7,  -53,  1003,  0,  0,  -1,  -11,  -27,  -39
2331254, 1710335563, "2024/3/13 13:12:43",  5,  -62,  1001,  0,  0,  -1,  -10,  -25,  -40
2331454, 1710335563, "2024/3/13 13:12:43",  8,  -61,  1004,  0,  0,  -1,  -11,  -27,  -40
2331654, 1710335564, "2024/3/13 13:12:44",  4,  -58,  1000,  0,  -1,  0,  -9,  -26,  -39
2331854, 1710335564, "2024/3/13 13:12:44",  5,  -57,  1005,  0,  0,  -1,  -9,  -26,  -39
2332054, 1710335564, "2024/3/13 13:12:44",  4,  -57,  1003,  0,  0,  -1,  -9,  -28,  -39
2332254, 1710335564, "2024/3/13 13:12:44",  2,  -47,  1003,  0,  0,  -1,  -10,  -26,  -39
2332454, 1710335564, "2024/3/13 13:12:44",  3,  -56,  1005,  0,  -1,  -1,  -11,  -26,  -40
2332654, 1710335565, "2024/3/13 13:12:45",  7,  -56,  1000,  0,  0,  -1,  -9,  -26,  -40
2332854, 1710335565, "2024/3/13 13:12:45",  7,  -60,  1004,  0,  0,  -1,  -8,  -27,  -40
2333054, 1710335565, "2024/3/13 13:12:45",  4,  -57,  1003,  0,  0,  0,  -12,  -26,  -40
2333254, 1710335565, "2024/3/13 13:12:45",  8,  -55,  1004,  0,  0,  -1,  -10,  -26,  -40
2333454, 1710335565, "2024/3/13 13:12:45",  3,  -57,  1001,  0,  0,  0,  -11,  -27,  -39
2333654, 1710335566, "2024/3/13 13:12:46",  8,  -59,  1000,  0,  0,  -1,  -9,  -26,  -40
2333854, 1710335566, "2024/3/13 13:12:46",  3,  -51,  1002,  0,  0,  -1,  -10,  -24,  -40
2334054, 1710335566, "2024/3/13 13:12:46",  3,  -56,  1006,  0,  0,  -1,  -8,  -27,  -39
2334254, 1710335566, "2024/3/13 13:12:46",  0,  -56,  1004,  0,  0,  -1,  -12,  -26,  -39
2334454, 1710335566, "2024/3/13 13:12:46",  4,  -54,  1005,  0,  -1,  -1,  -10,  -26,  -41
2334654, 1710335567, "2024/3/13 13:12:47",  -1,  -54,  1001,  0,  0,  -1,  -10,  -27,  -39
2334854, 1710335567, "2024/3/13 13:12:47",  2,  -62,  1005,  0,  0,  0,  -11,  -26,  -40
2335054, 1710335567, "2024/3/13 13:12:47",  8,  -62,  1004,  0,  0,  0,  -10,  -25,  -40
2335254, 1710335567, "2024/3/13 13:12:47",  10,  -55,  1002,  0,  0,  -1,  -9,  -25,  -39
2335454, 1710335567, "2024/3/13 13:12:47",  3,  -55,  1002,  0,  -1,  -1,  -11,  -27,  -40
2335654, 1710335568, "2024/3/13 13:12:48",  9,  -55,  1000,  0,  0,  0,  -10,  -26,  -40
2335854, 1710335568, "2024/3/13 13:12:48",  7,  -56,  1000,  0,  -1,  -1,  -9,  -26,  -39
2336054, 1710335568, "2024/3/13 13:12:48",  7,  -57,  1003,  0,  0,  0,  -8,  -26,  -39
2336254, 1710335568, "2024/3/13 13:12:48",  5,  -54,  1004,  0,  0,  -1,  -12,  -28,  -38
2336454, 1710335568, "2024/3/13 13:12:48",  0,  -57,  1002,  0,  0,  -1,  -9,  -26,  -40
2336654, 1710335569, "2024/3/13 13:12:49",  4,  -61,  1001,  0,  -1,  -1,  -11,  -27,  -40
2336854, 1710335569, "2024/3/13 13:12:49",  8,  -58,  1001,  0,  -1,  -1,  -9,  -25,  -39
2337054, 1710335569, "2024/3/13 13:12:49",  4,  -55,  1007,  0,  -1,  -1,  -9,  -27,  -40
2337254, 1710335569, "2024/3/13 13:12:49",  4,  -55,  1002,  0,  0,  -1,  -9,  -27,  -39
2337454, 1710335569, "2024/3/13 13:12:49",  3,  -58,  1003,  0,  0,  0,  -9,  -27,  -38
2337654, 1710335570, "2024/3/13 13:12:50",  5,  -53,  1004,  0,  0,  0,  -11,  -27,  -39
2337854, 1710335570, "2024/3/13 13:12:50",  5,  -59,  1003,  0,  0,  -1,  -10,  -27,  -39
2338054, 1710335570, "2024/3/13 13:12:50",  5,  -61,  1007,  0,  0,  -1,  -11,  -25,  -39
2338254, 1710335570, "2024/3/13 13:12:50",  3,  -57,  1002,  0,  -1,  -1,  -11,  -26,  -39
2338454, 1710335570, "2024/3/13 13:12:50",  5,  -52,  1002,  0,  0,  -1,  -10,  -26,  -40
2338654, 1710335571, "2024/3/13 13:12:51",  5,  -63,  1003,  0,  0,  0,  -9,  -26,  -40
2338854, 1710335571, "2024/3/13 13:12:51",  2,  -57,  1002,  0,  0,  -1,  -9,  -27,  -39
2339054, 1710335571, "2024/3/13 13:12:51",  5,  -57,  1003,  0,  0,  -1,  -10,  -27,  -39
2339254, 1710335571, "2024/3/13 13:12:51",  6,  -58,  1004,  0,  0,  0,  -11,  -25,  -40
2339454, 1710335571, "2024/3/13 13:12:51",  4,  -52,  1007,  0,  0,  -1,  -10,  -26,  -40
2339654, 1710335572, "2024/3/13 13:12:52",  6,  -52,  1004,  0,  0,  0,  -9,  -27,  -41
2339854, 1710335572, "2024/3/13 13:12:52",  5,  -53,  1004,  0,  0,  -1,  -11,  -27,  -40
2340054, 1710335572, "2024/3/13 13:12:52",  6,  -60,  1003,  0,  0,  0,  -9,  -26,  -41
2340254, 1710335572, "2024/3/13 13:12:52",  -2,  -55,  1004,  0,  0,  0,  -11,  -26,  -41
2340454, 1710335572, "2024/3/13 13:12:52",  5,  -60,  1005,  0,  0,  -1,  -9,  -28,  -40
2340654, 1710335573, "2024/3/13 13:12:53",  8,  -60,  1004,  0,  -1,  0,  -10,  -25,  -40
2340854, 1710335573, "2024/3/13 13:12:53",  5,  -56,  1004,  0,  -1,  -1,  -9,  -26,  -40
2341054, 1710335573, "2024/3/13 13:12:53",  4,  -54,  1005,  0,  0,  -1,  -9,  -26,  -42
2341254, 1710335573, "2024/3/13 13:12:53",  4,  -60,  1004,  0,  0,  -1,  -11,  -26,  -41
2341454, 1710335573, "2024/3/13 13:12:53",  8,  -56,  1004,  0,  0,  -1,  -9,  -26,  -41
2341654, 1710335574, "2024/3/13 13:12:54",  3,  -56,  1003,  0,  -1,  0,  -10,  -27,  -40
2341854, 1710335574, "2024/3/13 13:12:54",  8,  -56,  1003,  0,  -1,  0,  -11,  -26,  -39
2342054, 1710335574, "2024/3/13 13:12:54",  4,  -52,  1004,  0,  -1,  -1,  -10,  -27,  -40
2342254, 1710335574, "2024/3/13 13:12:54",  9,  -56,  1002,  0,  0,  -1,  -11,  -25,  -40
2342454, 1710335574, "2024/3/13 13:12:54",  3,  -58,  1003,  0,  0,  -1,  -11,  -28,  -40
2342654, 1710335575, "2024/3/13 13:12:55",  2,  -51,  1006,  0,  0,  -1,  -9,  -25,  -39
2342854, 1710335575, "2024/3/13 13:12:55",  3,  -59,  1004,  0,  0,  -1,  -9,  -27,  -41
2343054, 1710335575, "2024/3/13 13:12:55",  3,  -53,  1003,  0,  0,  -1,  -11,  -27,  -39
2343254, 1710335575, "2024/3/13 13:12:55",  7,  -61,  1005,  0,  0,  0,  -11,  -25,  -41
2343454, 1710335575, "2024/3/13 13:12:55",  7,  -58,  1006,  0,  0,  -1,  -11,  -26,  -40
2343654, 1710335576, "2024/3/13 13:12:56",  9,  -56,  1004,  0,  0,  -1,  -12,  -26,  -40
2343854, 1710335576, "2024/3/13 13:12:56",  4,  -55,  1005,  0,  0,  0,  -9,  -27,  -40
2344054, 1710335576, "2024/3/13 13:12:56",  5,  -59,  1003,  0,  0,  0,  -11,  -26,  -40
2344254, 1710335576, "2024/3/13 13:12:56",  2,  -58,  1001,  0,  0,  0,  -10,  -26,  -39
2344454, 1710335576, "2024/3/13 13:12:56",  6,  -60,  1006,  0,  0,  -1,  -10,  -25,  -40
2344654, 1710335577, "2024/3/13 13:12:57",  0,  -56,  1005,  0,  -1,  -1,  -10,  -27,  -39
2344854, 1710335577, "2024/3/13 13:12:57",  1,  -54,  1004,  0,  0,  -1,  -9,  -28,  -42
2345054, 1710335577, "2024/3/13 13:12:57",  4,  -57,  1002,  0,  0,  0,  -10,  -26,  -40
2345254, 1710335577, "2024/3/13 13:12:57",  3,  -57,  1002,  0,  0,  -1,  -10,  -26,  -40
2345454, 1710335577, "2024/3/13 13:12:57",  3,  -55,  1003,  0,  0,  0,  -10,  -25,  -40
2345654, 1710335578, "2024/3/13 13:12:58",  0,  -61,  1004,  0,  0,  -1,  -9,  -26,  -40
2345854, 1710335578, "2024/3/13 13:12:58",  4,  -59,  1003,  0,  0,  0,  -11,  -26,  -40
2346054, 1710335578, "2024/3/13 13:12:58",  1,  -59,  1001,  0,  0,  0,  -9,  -25,  -39
2346254, 1710335578, "2024/3/13 13:12:58",  7,  -54,  1003,  0,  -1,  -1,  -10,  -25,  -39
2346454, 1710335578, "2024/3/13 13:12:58",  3,  -62,  1002,  0,  0,  -1,  -10,  -27,  -40
2346654, 1710335579, "2024/3/13 13:12:59",  3,  -63,  1002,  0,  0,  0,  -10,  -26,  -40
2346854, 1710335579, "2024/3/13 13:12:59",  4,  -60,  1002,  0,  0,  -1,  -9,  -25,  -39
2347054, 1710335579, "2024/3/13 13:12:59",  -1,  -53,  1003,  0,  -1,  0,  -11,  -26,  -40
2347254, 1710335579, "2024/3/13 13:12:59",  2,  -54,  1007,  0,  0,  0,  -11,  -28,  -40
2347454, 1710335579, "2024/3/13 13:12:59",  2,  -59,  1004,  0,  0,  -1,  -10,  -27,  -40
2347654, 1710335580, "2024/3/13 13:13:0",  6,  -60,  1008,  0,  0,  0,  -11,  -26,  -40
2347854, 1710335580, "2024/3/13 13:13:0",  5,  -59,  1003,  0,  0,  -1,  -10,  -25,  -40
2348054, 1710335580, "2024/3/13 13:13:0",  3,  -57,  1004,  0,  0,  -1,  -10,  -27,  -40
2348254, 1710335580, "2024/3/13 13:13:0",  6,  -59,  1002,  0,  0,  0,  -11,  -24,  -38
2348454, 1710335580, "2024/3/13 13:13:0",  5,  -61,  1002,  0,  0,  0,  -9,  -26,  -40
2348654, 1710335581, "2024/3/13 13:13:1",  6,  -62,  1005,  0,  0,  -1,  -9,  -27,  -40
2348854, 1710335581, "2024/3/13 13:13:1",  3,  -54,  1001,  0,  0,  0,  -10,  -27,  -41
2349054, 1710335581, "2024/3/13 13:13:1",  5,  -61,  1004,  0,  0,  0,  -10,  -26,  -40
2349254, 1710335581, "2024/3/13 13:13:1",  5,  -60,  1004,  0,  0,  0,  -8,  -25,  -42
2349454, 1710335581, "2024/3/13 13:13:1",  1,  -57,  1004,  0,  0,  -1,  -11,  -27,  -39
2349654, 1710335582, "2024/3/13 13:13:2",  3,  -59,  1001,  0,  0,  0,  -10,  -25,  -40
2349854, 1710335582, "2024/3/13 13:13:2",  1,  -54,  1000,  0,  0,  -1,  -10,  -26,  -41
2350054, 1710335582, "2024/3/13 13:13:2",  1,  -55,  1004,  0,  0,  0,  -11,  -26,  -40
2350254, 1710335582, "2024/3/13 13:13:2",  5,  -58,  1003,  0,  0,  -1,  -10,  -25,  -38
2350454, 1710335582, "2024/3/13 13:13:2",  5,  -57,  1008,  0,  -1,  -1,  -10,  -27,  -41
2350654, 1710335583, "2024/3/13 13:13:3",  6,  -57,  1006,  0,  -1,  -1,  -9,  -26,  -39
2350854, 1710335583, "2024/3/13 13:13:3",  6,  -61,  1000,  0,  0,  -1,  -11,  -25,  -39
2351054, 1710335583, "2024/3/13 13:13:3",  2,  -55,  1001,  0,  0,  -1,  -11,  -26,  -39
2351254, 1710335583, "2024/3/13 13:13:3",  7,  -57,  1006,  0,  -1,  -1,  -11,  -26,  -41
2351454, 1710335583, "2024/3/13 13:13:3",  5,  -58,  1001,  0,  0,  -1,  -10,  -26,  -40
2351654, 1710335584, "2024/3/13 13:13:4",  7,  -57,  1004,  0,  0,  -1,  -9,  -25,  -41
2351854, 1710335584, "2024/3/13 13:13:4",  6,  -60,  1005,  0,  0,  0,  -10,  -26,  -42
2352054, 1710335584, "2024/3/13 13:13:4",  6,  -56,  1001,  0,  0,  -1,  -12,  -26,  -40
2352254, 1710335584, "2024/3/13 13:13:4",  3,  -57,  1004,  0,  0,  0,  -9,  -25,  -40
2352454, 1710335584, "2024/3/13 13:13:4",  3,  -59,  1005,  0,  0,  0,  -9,  -27,  -40
2352654, 1710335585, "2024/3/13 13:13:5",  8,  -56,  1004,  0,  0,  0,  -9,  -26,  -42
2352854, 1710335585, "2024/3/13 13:13:5",  5,  -59,  1004,  0,  -1,  -1,  -9,  -27,  -39
2353054, 1710335585, "2024/3/13 13:13:5",  6,  -57,  1005,  0,  0,  -1,  -10,  -27,  -40
2353254, 1710335585, "2024/3/13 13:13:5",  8,  -56,  1000,  0,  0,  -1,  -12,  -26,  -39
2353454, 1710335585, "2024/3/13 13:13:5",  8,  -55,  1001,  0,  0,  0,  -10,  -27,  -40
2353654, 1710335586, "2024/3/13 13:13:6",  6,  -56,  1003,  0,  0,  0,  -11,  -25,  -40
2353854, 1710335586, "2024/3/13 13:13:6",  8,  -64,  1001,  0,  0,  0,  -9,  -28,  -40
2354054, 1710335586, "2024/3/13 13:13:6",  1,  -57,  1003,  0,  0,  -1,  -10,  -26,  -38
2354254, 1710335586, "2024/3/13 13:13:6",  6,  -62,  1002,  0,  0,  -1,  -9,  -27,  -40
2354454, 1710335586, "2024/3/13 13:13:6",  5,  -51,  1004,  0,  0,  -1,  -9,  -26,  -41
2354654, 1710335587, "2024/3/13 13:13:7",  1,  -57,  1004,  0,  0,  -1,  -11,  -27,  -39
2354854, 1710335587, "2024/3/13 13:13:7",  2,  -59,  1001,  0,  0,  -1,  -10,  -27,  -39
2355054, 1710335587, "2024/3/13 13:13:7",  6,  -58,  1002,  0,  -1,  -1,  -9,  -26,  -39
2355254, 1710335587, "2024/3/13 13:13:7",  4,  -60,  1004,  0,  0,  -1,  -9,  -27,  -40
2355454, 1710335587, "2024/3/13 13:13:7",  1,  -52,  1003,  0,  0,  -1,  -10,  -27,  -39
2355654, 1710335588, "2024/3/13 13:13:8",  6,  -58,  1002,  0,  0,  0,  -11,  -26,  -40
2355854, 1710335588, "2024/3/13 13:13:8",  6,  -56,  1003,  0,  -1,  -1,  -10,  -26,  -38
2356054, 1710335588, "2024/3/13 13:13:8",  5,  -55,  1006,  0,  0,  -1,  -11,  -26,  -40
2356254, 1710335588, "2024/3/13 13:13:8",  7,  -63,  1003,  0,  -1,  -1,  -11,  -26,  -39
2356454, 1710335588, "2024/3/13 13:13:8",  9,  -61,  1007,  0,  0,  0,  -10,  -25,  -39
2356654, 1710335589, "2024/3/13 13:13:9",  6,  -56,  1002,  0,  -1,  -1,  -10,  -27,  -38
2356854, 1710335589, "2024/3/13 13:13:9",  9,  -61,  1005,  0,  -1,  -1,  -9,  -26,  -38
2357054, 1710335589, "2024/3/13 13:13:9",  4,  -61,  1004,  0,  0,  0,  -11,  -25,  -39
2357254, 1710335589, "2024/3/13 13:13:9",  2,  -54,  1002,  0,  0,  0,  -10,  -27,  -40
2357454, 1710335589, "2024/3/13 13:13:9",  0,  -51,  1001,  0,  0,  -1,  -11,  -26,  -40
2357654, 1710335590, "2024/3/13 13:13:10",  5,  -57,  1004,  0,  0,  -1,  -11,  -26,  -40
2357854, 1710335590, "2024/3/13 13:13:10",  6,  -58,  1004,  0,  0,  0,  -10,  -24,  -38
2358054, 1710335590, "2024/3/13 13:13:10",  6,  -59,  1003,  0,  -1,  -1,  -10,  -26,  -41
2358254, 1710335590, "2024/3/13 13:13:10",  1,  -61,  1001,  0,  0,  0,  -12,  -25,  -40
2358454, 1710335590, "2024/3/13 13:13:10",  5,  -55,  1004,  0,  0,  -1,  -10,  -26,  -40
2358654, 1710335591, "2024/3/13 13:13:11",  4,  -63,  1006,  0,  0,  -1,  -10,  -27,  -40
2358854, 1710335591, "2024/3/13 13:13:11",  4,  -63,  1003,  0,  0,  -1,  -11,  -26,  -41
2359054, 1710335591, "2024/3/13 13:13:11",  5,  -57,  1004,  0,  0,  -1,  -10,  -27,  -40
2359254, 1710335591, "2024/3/13 13:13:11",  4,  -56,  1002,  0,  0,  0,  -11,  -27,  -38
2359454, 1710335591, "2024/3/13 13:13:11",  8,  -55,  1004,  0,  0,  -1,  -10,  -24,  -39
2359654, 1710335592, "2024/3/13 13:13:12",  3,  -59,  1000,  0,  0,  -1,  -10,  -27,  -40
2359854, 1710335592, "2024/3/13 13:13:12",  10,  -58,  1002,  0,  0,  -1,  -10,  -26,  -41
2360054, 1710335592, "2024/3/13 13:13:12",  7,  -62,  1003,  0,  0,  -1,  -11,  -26,  -40
2360254, 1710335592, "2024/3/13 13:13:12",  0,  -58,  1001,  0,  0,  0,  -9,  -25,  -40
2360454, 1710335592, "2024/3/13 13:13:12",  9,  -56,  1004,  0,  -1,  -1,  -10,  -26,  -39
2360654, 1710335593, "2024/3/13 13:13:13",  3,  -54,  1000,  0,  0,  0,  -11,  -26,  -40
2360854, 1710335593, "2024/3/13 13:13:13",  2,  -61,  1004,  0,  -1,  0,  -10,  -26,  -41
2361054, 1710335593, "2024/3/13 13:13:13",  6,  -57,  1001,  0,  0,  -1,  -11,  -26,  -38
2361254, 1710335593, "2024/3/13 13:13:13",  4,  -57,  1003,  0,  -1,  -1,  -9,  -24,  -40
2361454, 1710335593, "2024/3/13 13:13:13",  4,  -58,  1002,  0,  0,  -1,  -10,  -27,  -41
2361654, 1710335594, "2024/3/13 13:13:14",  9,  -61,  1004,  0,  0,  -1,  -10,  -27,  -40
2361854, 1710335594, "2024/3/13 13:13:14",  9,  -54,  1003,  0,  0,  -1,  -9,  -26,  -40
2362054, 1710335594, "2024/3/13 13:13:14",  3,  -53,  1005,  0,  0,  0,  -10,  -25,  -40
2362254, 1710335594, "2024/3/13 13:13:14",  6,  -57,  1006,  0,  0,  -1,  -9,  -27,  -40
2362454, 1710335594, "2024/3/13 13:13:14",  4,  -56,  1007,  0,  0,  -1,  -9,  -27,  -42
2362654, 1710335595, "2024/3/13 13:13:15",  3,  -58,  1006,  0,  0,  -1,  -11,  -25,  -38
2362854, 1710335595, "2024/3/13 13:13:15",  0,  -55,  1002,  0,  0,  -1,  -9,  -26,  -40
2363054, 1710335595, "2024/3/13 13:13:15",  5,  -56,  1003,  0,  0,  -1,  -10,  -27,  -40
2363254, 1710335595, "2024/3/13 13:13:15",  6,  -60,  1003,  0,  0,  0,  -9,  -28,  -40
2363454, 1710335595, "2024/3/13 13:13:15",  4,  -61,  1004,  0,  0,  -1,  -10,  -27,  -40
2363654, 1710335596, "2024/3/13 13:13:16",  3,  -58,  1003,  0,  -1,  -1,  -9,  -26,  -40
2363854, 1710335596, "2024/3/13 13:13:16",  3,  -60,  1005,  0,  0,  -1,  -10,  -25,  -41
2364054, 1710335596, "2024/3/13 13:13:16",  3,  -59,  1000,  0,  0,  0,  -11,  -26,  -40
2364254, 1710335596, "2024/3/13 13:13:16",  5,  -55,  1005,  0,  0,  -1,  -8,  -26,  -40
2364454, 1710335596, "2024/3/13 13:13:16",  7,  -57,  1004,  0,  0,  0,  -11,  -26,  -40
2364654, 1710335597, "2024/3/13 13:13:17",  7,  -58,  1005,  0,  0,  0,  -11,  -27,  -39
2364854, 1710335597, "2024/3/13 13:13:17",  -1,  -59,  1003,  0,  0,  -1,  -10,  -26,  -40
2365054, 1710335597, "2024/3/13 13:13:17",  8,  -56,  1002,  0,  0,  0,  -10,  -26,  -40
2365254, 1710335597, "2024/3/13 13:13:17",  3,  -58,  1005,  0,  0,  -1,  -11,  -26,  -39
2365454, 1710335597, "2024/3/13 13:13:17",  4,  -62,  1005,  0,  -1,  -1,  -9,  -27,  -39
2365654, 1710335598, "2024/3/13 13:13:18",  6,  -61,  1000,  0,  0,  -1,  -11,  -26,  -40
2365854, 1710335598, "2024/3/13 13:13:18",  7,  -55,  1006,  0,  0,  0,  -11,  -25,  -41
2366054, 1710335598, "2024/3/13 13:13:18",  4,  -56,  1007,  0,  0,  -1,  -11,  -26,  -41
2366254, 1710335598, "2024/3/13 13:13:18",  6,  -60,  1005,  0,  0,  -1,  -9,  -26,  -40
2366454, 1710335598, "2024/3/13 13:13:18",  4,  -57,  1003,  0,  0,  -1,  -10,  -27,  -39
2366654, 1710335599, "2024/3/13 13:13:19",  5,  -55,  1003,  0,  0,  -1,  -9,  -26,  -41
2366854, 1710335599, "2024/3/13 13:13:19",  4,  -55,  1003,  0,  0,  -1,  -10,  -26,  -40
2367054, 1710335599, "2024/3/13 13:13:19",  7,  -58,  1006,  0,  0,  0,  -11,  -27,  -40
2367254, 1710335599, "2024/3/13 13:13:19",  6,  -55,  1003,  0,  0,  -1,  -11,  -27,  -40
2367454, 1710335599, "2024/3/13 13:13:19",  8,  -57,  1004,  0,  -1,  -1,  -11,  -26,  -40
2367654, 1710335600, "2024/3/13 13:13:20",  4,  -53,  1002,  0,  0,  -1,  -10,  -26,  -40
2367854, 1710335600, "2024/3/13 13:13:20",  6,  -54,  1004,  0,  0,  0,  -10,  -26,  -40
2368054, 1710335600, "2024/3/13 13:13:20",  5,  -55,  1001,  0,  0,  -1,  -10,  -26,  -40
2368254, 1710335600, "2024/3/13 13:13:20",  3,  -56,  1005,  0,  0,  -1,  -10,  -28,  -39
2368454, 1710335600, "2024/3/13 13:13:20",  2,  -60,  1002,  0,  0,  0,  -11,  -26,  -40
2368654, 1710335601, "2024/3/13 13:13:21",  9,  -57,  1005,  0,  0,  0,  -9,  -25,  -40
2368854, 1710335601, "2024/3/13 13:13:21",  3,  -57,  1003,  0,  -1,  -1,  -10,  -26,  -41
2369054, 1710335601, "2024/3/13 13:13:21",  9,  -58,  1004,  0,  0,  -1,  -11,  -26,  -40
2369254, 1710335601, "2024/3/13 13:13:21",  4,  -57,  1003,  0,  0,  -1,  -11,  -25,  -41
2369454, 1710335601, "2024/3/13 13:13:21",  2,  -53,  1004,  0,  0,  -1,  -11,  -26,  -40
2369654, 1710335602, "2024/3/13 13:13:22",  4,  -58,  1004,  0,  0,  0,  -10,  -27,  -40
2369854, 1710335602, "2024/3/13 13:13:22",  4,  -63,  1003,  0,  0,  -1,  -10,  -27,  -40
2370054, 1710335602, "2024/3/13 13:13:22",  6,  -55,  1007,  0,  0,  -1,  -11,  -27,  -41
2370254, 1710335602, "2024/3/13 13:13:22",  8,  -62,  1006,  0,  0,  -1,  -11,  -26,  -40
2370454, 1710335602, "2024/3/13 13:13:22",  3,  -57,  1004,  0,  0,  -1,  -9,  -25,  -41
2370654, 1710335603, "2024/3/13 13:13:23",  4,  -59,  1001,  0,  0,  0,  -8,  -25,  -40
2370854, 1710335603, "2024/3/13 13:13:23",  4,  -59,  1003,  0,  0,  0,  -9,  -26,  -39
2371054, 1710335603, "2024/3/13 13:13:23",  -1,  -56,  1002,  0,  0,  0,  -11,  -26,  -40
2371254, 1710335603, "2024/3/13 13:13:23",  4,  -58,  1002,  0,  0,  -1,  -10,  -26,  -39
2371454, 1710335603, "2024/3/13 13:13:23",  7,  -60,  1003,  0,  0,  -1,  -12,  -26,  -39
2371654, 1710335604, "2024/3/13 13:13:24",  10,  -61,  1004,  0,  0,  0,  -11,  -26,  -39
2371854, 1710335604, "2024/3/13 13:13:24",  7,  -58,  1004,  0,  0,  -1,  -9,  -27,  -40
2372054, 1710335604, "2024/3/13 13:13:24",  7,  -58,  1004,  0,  0,  -1,  -9,  -26,  -40
2372254, 1710335604, "2024/3/13 13:13:24",  7,  -53,  1001,  0,  0,  0,  -10,  -26,  -41
2372454, 1710335604, "2024/3/13 13:13:24",  6,  -55,  1004,  0,  0,  0,  -10,  -27,  -39
2372654, 1710335605, "2024/3/13 13:13:25",  5,  -58,  1003,  0,  0,  -1,  -11,  -25,  -40
2372854, 1710335605, "2024/3/13 13:13:25",  1,  -59,  1001,  0,  0,  -1,  -9,  -26,  -40
2373054, 1710335605, "2024/3/13 13:13:25",  2,  -56,  1001,  0,  0,  0,  -10,  -27,  -39
2373254, 1710335605, "2024/3/13 13:13:25",  4,  -56,  1001,  0,  0,  0,  -10,  -25,  -39
2373454, 1710335605, "2024/3/13 13:13:25",  7,  -58,  1005,  0,  0,  -1,  -11,  -26,  -40
2373654, 1710335606, "2024/3/13 13:13:26",  1,  -58,  1002,  0,  0,  -1,  -10,  -27,  -39
2373854, 1710335606, "2024/3/13 13:13:26",  0,  -59,  1004,  0,  0,  -1,  -9,  -25,  -40
2374054, 1710335606, "2024/3/13 13:13:26",  2,  -62,  1002,  0,  -1,  -1,  -9,  -26,  -40
2374254, 1710335606, "2024/3/13 13:13:26",  2,  -62,  1003,  0,  -1,  -1,  -11,  -25,  -41
2374454, 1710335606, "2024/3/13 13:13:26",  7,  -57,  1003,  0,  0,  -1,  -8,  -28,  -39
2374654, 1710335607, "2024/3/13 13:13:27",  5,  -57,  1003,  0,  0,  -1,  -9,  -26,  -40
2374854, 1710335607, "2024/3/13 13:13:27",  7,  -56,  1003,  0,  0,  0,  -9,  -27,  -40
2375054, 1710335607, "2024/3/13 13:13:27",  4,  -60,  1006,  0,  0,  -1,  -11,  -27,  -39
2375254, 1710335607, "2024/3/13 13:13:27",  5,  -56,  1002,  0,  0,  0,  -11,  -27,  -40
2375454, 1710335607, "2024/3/13 13:13:27",  5,  -60,  1003,  0,  0,  -1,  -11,  -27,  -42
2375654, 1710335608, "2024/3/13 13:13:28",  5,  -62,  1000,  0,  -1,  -1,  -11,  -27,  -40
2375854, 1710335608, "2024/3/13 13:13:28",  3,  -59,  1002,  0,  -1,  -1,  -11,  -27,  -40
2376054, 1710335608, "2024/3/13 13:13:28",  4,  -61,  1003,  0,  0,  -1,  -10,  -26,  -40
2376254, 1710335608, "2024/3/13 13:13:28",  7,  -56,  1002,  0,  0,  -1,  -11,  -25,  -40
2376454, 1710335608, "2024/3/13 13:13:28",  6,  -56,  1004,  0,  0,  0,  -10,  -27,  -41
2376654, 1710335609, "2024/3/13 13:13:29",  5,  -62,  1004,  0,  0,  -1,  -11,  -24,  -39
2376854, 1710335609, "2024/3/13 13:13:29",  4,  -59,  1002,  0,  0,  0,  -10,  -25,  -40
2377054, 1710335609, "2024/3/13 13:13:29",  4,  -55,  1002,  0,  0,  -1,  -11,  -26,  -41
2377254, 1710335609, "2024/3/13 13:13:29",  4,  -57,  1004,  0,  0,  -1,  -9,  -26,  -40
2377454, 1710335609, "2024/3/13 13:13:29",  7,  -55,  1006,  0,  0,  -1,  -9,  -25,  -40
2377654, 1710335610, "2024/3/13 13:13:30",  8,  -53,  1006,  0,  0,  0,  -10,  -26,  -40
2377854, 1710335610, "2024/3/13 13:13:30",  0,  -61,  1000,  0,  0,  0,  -9,  -27,  -39
2378054, 1710335610, "2024/3/13 13:13:30",  7,  -55,  1006,  0,  0,  -1,  -10,  -25,  -41
2378254, 1710335610, "2024/3/13 13:13:30",  5,  -55,  1001,  0,  0,  -1,  -10,  -27,  -40
2378454, 1710335610, "2024/3/13 13:13:30",  0,  -60,  1002,  0,  0,  -1,  -10,  -28,  -41
2378654, 1710335611, "2024/3/13 13:13:31",  9,  -60,  1005,  0,  0,  -1,  -11,  -26,  -41
2378854, 1710335611, "2024/3/13 13:13:31",  2,  -61,  1007,  0,  0,  0,  -11,  -26,  -40
2379054, 1710335611, "2024/3/13 13:13:31",  8,  -59,  1004,  0,  0,  -1,  -12,  -25,  -41
2379254, 1710335611, "2024/3/13 13:13:31",  3,  -57,  1003,  0,  0,  -1,  -10,  -26,  -40
2379454, 1710335611, "2024/3/13 13:13:31",  5,  -56,  1005,  0,  0,  -1,  -11,  -25,  -40
2379654, 1710335612, "2024/3/13 13:13:32",  1,  -54,  1002,  0,  0,  -1,  -10,  -26,  -39
2379854, 1710335612, "2024/3/13 13:13:32",  5,  -54,  1000,  0,  0,  -1,  -9,  -28,  -41
2380054, 1710335612, "2024/3/13 13:13:32",  5,  -59,  1002,  0,  0,  0,  -9,  -26,  -41
2380254, 1710335612, "2024/3/13 13:13:32",  6,  -59,  1003,  0,  0,  0,  -10,  -26,  -40
2380454, 1710335612, "2024/3/13 13:13:32",  7,  -58,  1002,  0,  0,  0,  -11,  -25,  -40
2380654, 1710335613, "2024/3/13 13:13:33",  2,  -58,  1002,  0,  0,  0,  -11,  -25,  -40
2380854, 1710335613, "2024/3/13 13:13:33",  0,  -61,  1001,  0,  0,  -1,  -10,  -27,  -41
2381054, 1710335613, "2024/3/13 13:13:33",  5,  -61,  1005,  0,  0,  -1,  -11,  -26,  -39
2381254, 1710335613, "2024/3/13 13:13:33",  6,  -65,  1004,  0,  0,  -1,  -10,  -26,  -38
2381454, 1710335613, "2024/3/13 13:13:33",  5,  -58,  1005,  0,  -1,  -1,  -11,  -26,  -39
2381654, 1710335614, "2024/3/13 13:13:34",  0,  -50,  1007,  0,  -1,  -1,  -12,  -24,  -40
2381854, 1710335614, "2024/3/13 13:13:34",  1,  -55,  1005,  0,  0,  0,  -10,  -24,  -40
2382054, 1710335614, "2024/3/13 13:13:34",  -1,  -55,  1002,  0,  -1,  0,  -11,  -25,  -41
2382254, 1710335614, "2024/3/13 13:13:34",  5,  -61,  1003,  0,  0,  -1,  -11,  -26,  -39
2382454, 1710335614, "2024/3/13 13:13:34",  2,  -54,  1002,  0,  0,  -1,  -10,  -25,  -40
2382654, 1710335615, "2024/3/13 13:13:35",  3,  -57,  1003,  0,  0,  -1,  -9,  -26,  -41
2382854, 1710335615, "2024/3/13 13:13:35",  3,  -63,  1002,  0,  0,  0,  -10,  -26,  -39
2383054, 1710335615, "2024/3/13 13:13:35",  3,  -58,  1005,  0,  0,  0,  -9,  -26,  -41
2383254, 1710335615, "2024/3/13 13:13:35",  5,  -57,  1000,  0,  0,  -1,  -10,  -25,  -40
2383454, 1710335615, "2024/3/13 13:13:35",  7,  -63,  1001,  0,  0,  -1,  -12,  -25,  -41
2383654, 1710335616, "2024/3/13 13:13:36",  7,  -57,  1001,  0,  0,  -1,  -10,  -27,  -40
2383854, 1710335616, "2024/3/13 13:13:36",  6,  -59,  1002,  0,  0,  -1,  -11,  -26,  -40
2384054, 1710335616, "2024/3/13 13:13:36",  4,  -57,  1002,  0,  0,  0,  -9,  -27,  -40
2384254, 1710335616, "2024/3/13 13:13:36",  3,  -64,  1003,  0,  0,  -1,  -11,  -26,  -39
2384454, 1710335616, "2024/3/13 13:13:36",  7,  -58,  1002,  0,  -1,  0,  -10,  -26,  -40
2384654, 1710335617, "2024/3/13 13:13:37",  6,  -54,  1003,  0,  0,  -1,  -9,  -26,  -39
2384854, 1710335617, "2024/3/13 13:13:37",  4,  -57,  1003,  0,  0,  -1,  -10,  -25,  -40
2385054, 1710335617, "2024/3/13 13:13:37",  9,  -49,  1003,  0,  0,  -1,  -11,  -27,  -40
2385254, 1710335617, "2024/3/13 13:13:37",  3,  -55,  1003,  0,  0,  -1,  -11,  -24,  -41
2385454, 1710335617, "2024/3/13 13:13:37",  7,  -56,  1004,  0,  0,  -1,  -9,  -26,  -39
2385654, 1710335618, "2024/3/13 13:13:38",  4,  -60,  1004,  0,  0,  -1,  -11,  -26,  -40
2385854, 1710335618, "2024/3/13 13:13:38",  5,  -58,  1001,  0,  0,  -1,  -11,  -26,  -39
2386054, 1710335618, "2024/3/13 13:13:38",  3,  -58,  1002,  0,  0,  -1,  -10,  -26,  -41
2386254, 1710335618, "2024/3/13 13:13:38",  4,  -57,  1006,  0,  0,  -1,  -11,  -26,  -39
2386454, 1710335618, "2024/3/13 13:13:38",  4,  -58,  1002,  0,  0,  0,  -12,  -25,  -41
2386654, 1710335619, "2024/3/13 13:13:39",  6,  -59,  1001,  0,  0,  0,  -10,  -27,  -41
2386854, 1710335619, "2024/3/13 13:13:39",  3,  -59,  1004,  0,  0,  0,  -11,  -25,  -40
2387054, 1710335619, "2024/3/13 13:13:39",  3,  -59,  1001,  0,  0,  0,  -10,  -26,  -39
2387254, 1710335619, "2024/3/13 13:13:39",  4,  -51,  1000,  0,  0,  -1,  -10,  -26,  -41
2387454, 1710335619, "2024/3/13 13:13:39",  9,  -54,  1004,  0,  0,  -1,  -10,  -27,  -39
2387654, 1710335620, "2024/3/13 13:13:40",  3,  -61,  1003,  0,  0,  -1,  -11,  -25,  -40
2387854, 1710335620, "2024/3/13 13:13:40",  5,  -54,  1004,  0,  0,  -1,  -10,  -25,  -40
2388054, 1710335620, "2024/3/13 13:13:40",  3,  -60,  1001,  0,  0,  -1,  -12,  -27,  -40
2388254, 1710335620, "2024/3/13 13:13:40",  5,  -59,  1000,  0,  0,  0,  -11,  -25,  -40
2388454, 1710335620, "2024/3/13 13:13:40",  6,  -58,  1003,  0,  0,  0,  -10,  -27,  -41
2388654, 1710335621, "2024/3/13 13:13:41",  4,  -61,  1001,  0,  0,  -1,  -10,  -27,  -40
2388854, 1710335621, "2024/3/13 13:13:41",  3,  -56,  1002,  0,  0,  -1,  -9,  -27,  -41
2389054, 1710335621, "2024/3/13 13:13:41",  5,  -62,  1002,  0,  0,  0,  -10,  -26,  -40
2389254, 1710335621, "2024/3/13 13:13:41",  1,  -56,  1006,  0,  0,  -1,  -10,  -26,  -40
2389454, 1710335621, "2024/3/13 13:13:41",  3,  -57,  1005,  0,  0,  -1,  -9,  -27,  -40
2389654, 1710335622, "2024/3/13 13:13:42",  2,  -56,  1004,  0,  0,  0,  -11,  -26,  -40
2389854, 1710335622, "2024/3/13 13:13:42",  8,  -54,  1002,  0,  0,  0,  -10,  -24,  -40
2390054, 1710335622, "2024/3/13 13:13:42",  5,  -58,  1005,  0,  0,  -1,  -11,  -25,  -39
2390254, 1710335622, "2024/3/13 13:13:42",  6,  -58,  1003,  0,  0,  -1,  -10,  -26,  -41
2390454, 1710335622, "2024/3/13 13:13:42",  1,  -62,  1003,  0,  0,  -1,  -10,  -26,  -40
2390654, 1710335623, "2024/3/13 13:13:43",  4,  -51,  1004,  0,  0,  -1,  -10,  -26,  -40
2390854, 1710335623, "2024/3/13 13:13:43",  4,  -58,  1004,  0,  0,  -1,  -8,  -27,  -40
2391054, 1710335623, "2024/3/13 13:13:43",  5,  -58,  1004,  0,  0,  0,  -11,  -26,  -39
2391254, 1710335623, "2024/3/13 13:13:43",  2,  -54,  1000,  0,  0,  -1,  -10,  -27,  -40
2391454, 1710335623, "2024/3/13 13:13:43",  4,  -59,  1002,  0,  0,  -1,  -10,  -25,  -40
2391654, 1710335624, "2024/3/13 13:13:44",  6,  -55,  1005,  0,  0,  0,  -9,  -25,  -39
2391854, 1710335624, "2024/3/13 13:13:44",  3,  -56,  1006,  0,  0,  -1,  -9,  -27,  -39
2392054, 1710335624, "2024/3/13 13:13:44",  5,  -59,  1001,  0,  0,  0,  -10,  -26,  -39
2392254, 1710335624, "2024/3/13 13:13:44",  5,  -53,  1006,  0,  0,  0,  -10,  -26,  -41
2392454, 1710335624, "2024/3/13 13:13:44",  1,  -50,  1003,  0,  0,  -1,  -9,  -27,  -40
2392654, 1710335625, "2024/3/13 13:13:45",  5,  -57,  1003,  0,  0,  -1,  -12,  -26,  -40
2392854, 1710335625, "2024/3/13 13:13:45",  3,  -60,  1005,  0,  0,  -1,  -11,  -28,  -40
2393054, 1710335625, "2024/3/13 13:13:45",  5,  -57,  1003,  0,  0,  -1,  -9,  -26,  -40
2393254, 1710335625, "2024/3/13 13:13:45",  2,  -53,  1002,  0,  0,  -1,  -10,  -26,  -41
2393454, 1710335625, "2024/3/13 13:13:45",  5,  -55,  1003,  0,  0,  -1,  -10,  -27,  -39
2393654, 1710335626, "2024/3/13 13:13:46",  3,  -56,  1000,  0,  -1,  -1,  -9,  -26,  -40
2393854, 1710335626, "2024/3/13 13:13:46",  4,  -60,  1003,  0,  0,  0,  -10,  -26,  -39
2394054, 1710335626, "2024/3/13 13:13:46",  6,  -57,  1003,  0,  0,  0,  -11,  -27,  -40
2394254, 1710335626, "2024/3/13 13:13:46",  5,  -59,  1003,  0,  0,  -1,  -9,  -26,  -41
2394454, 1710335626, "2024/3/13 13:13:46",  6,  -55,  1004,  0,  0,  0,  -10,  -25,  -40
2394654, 1710335627, "2024/3/13 13:13:47",  0,  -51,  1002,  0,  0,  -1,  -10,  -25,  -40
2394854, 1710335627, "2024/3/13 13:13:47",  1,  -57,  1002,  0,  0,  -1,  -10,  -26,  -42
2395054, 1710335627, "2024/3/13 13:13:47",  5,  -54,  999,  0,  0,  -1,  -9,  -28,  -39
2395254, 1710335627, "2024/3/13 13:13:47",  8,  -54,  1004,  0,  0,  0,  -9,  -27,  -41
2395454, 1710335627, "2024/3/13 13:13:47",  6,  -58,  1004,  0,  0,  0,  -10,  -25,  -39
2395654, 1710335628, "2024/3/13 13:13:48",  4,  -58,  1006,  0,  0,  -1,  -10,  -26,  -40
2395854, 1710335628, "2024/3/13 13:13:48",  7,  -58,  1007,  0,  0,  -1,  -9,  -26,  -40
2396054, 1710335628, "2024/3/13 13:13:48",  2,  -60,  1004,  0,  0,  -1,  -11,  -26,  -39
2396254, 1710335628, "2024/3/13 13:13:48",  0,  -61,  1001,  0,  0,  0,  -9,  -25,  -41
2396454, 1710335628, "2024/3/13 13:13:48",  6,  -58,  1005,  0,  0,  -1,  -10,  -26,  -41
2396654, 1710335629, "2024/3/13 13:13:49",  5,  -54,  1002,  0,  -1,  0,  -10,  -28,  -39
2396854, 1710335629, "2024/3/13 13:13:49",  9,  -50,  1001,  0,  -1,  -1,  -11,  -25,  -40
2397054, 1710335629, "2024/3/13 13:13:49",  3,  -62,  1000,  0,  0,  0,  -10,  -26,  -39
2397254, 1710335629, "2024/3/13 13:13:49",  7,  -54,  1002,  0,  0,  0,  -10,  -25,  -40
2397454, 1710335629, "2024/3/13 13:13:49",  12,  -64,  1000,  0,  0,  0,  -11,  -26,  -40
2397654, 1710335630, "2024/3/13 13:13:50",  11,  -54,  1005,  0,  0,  0,  -9,  -26,  -39
2397854, 1710335630, "2024/3/13 13:13:50",  6,  -61,  1006,  0,  0,  0,  -8,  -26,  -40
2398054, 1710335630, "2024/3/13 13:13:50",  -1,  -58,  1006,  0,  0,  -1,  -10,  -27,  -39
2398254, 1710335630, "2024/3/13 13:13:50",  8,  -56,  1003,  0,  0,  -1,  -10,  -26,  -39
2398454, 1710335630, "2024/3/13 13:13:50",  2,  -57,  1004,  0,  0,  0,  -10,  -25,  -40
2398654, 1710335631, "2024/3/13 13:13:51",  0,  -59,  1005,  0,  0,  -1,  -10,  -27,  -41
2398854, 1710335631, "2024/3/13 13:13:51",  5,  -59,  1000,  0,  0,  -1,  -9,  -26,  -41
2399054, 1710335631, "2024/3/13 13:13:51",  4,  -61,  1004,  0,  0,  -1,  -10,  -27,  -39
2399254, 1710335631, "2024/3/13 13:13:51",  6,  -57,  1005,  0,  0,  -1,  -11,  -26,  -39
2399454, 1710335631, "2024/3/13 13:13:51",  1,  -56,  1001,  0,  0,  -1,  -9,  -28,  -41
2399654, 1710335632, "2024/3/13 13:13:52",  4,  -56,  999,  0,  0,  -1,  -11,  -26,  -39
2399854, 1710335632, "2024/3/13 13:13:52",  7,  -57,  1002,  0,  0,  -1,  -10,  -25,  -40
2400054, 1710335632, "2024/3/13 13:13:52",  5,  -55,  1005,  0,  0,  0,  -9,  -26,  -41
2400254, 1710335632, "2024/3/13 13:13:52",  3,  -57,  1005,  0,  0,  -1,  -10,  -25,  -40
2400454, 1710335632, "2024/3/13 13:13:52",  4,  -59,  1006,  0,  0,  0,  -10,  -26,  -39
2400654, 1710335633, "2024/3/13 13:13:53",  2,  -63,  1001,  0,  0,  -1,  -12,  -26,  -39
2400854, 1710335633, "2024/3/13 13:13:53",  5,  -62,  999,  0,  0,  -1,  -10,  -26,  -40
2401054, 1710335633, "2024/3/13 13:13:53",  7,  -62,  1004,  0,  0,  -1,  -9,  -25,  -39
2401254, 1710335633, "2024/3/13 13:13:53",  5,  -57,  1004,  0,  0,  0,  -10,  -25,  -40
2401454, 1710335633, "2024/3/13 13:13:53",  3,  -57,  1007,  0,  0,  -1,  -10,  -26,  -39
2401654, 1710335634, "2024/3/13 13:13:54",  7,  -53,  1001,  0,  0,  -1,  -9,  -27,  -40
2401854, 1710335634, "2024/3/13 13:13:54",  7,  -56,  1004,  0,  -1,  0,  -11,  -25,  -40
2402054, 1710335634, "2024/3/13 13:13:54",  1,  -60,  1001,  0,  0,  -1,  -10,  -26,  -40
2402254, 1710335634, "2024/3/13 13:13:54",  5,  -59,  1007,  0,  0,  0,  -10,  -25,  -39
2402454, 1710335634, "2024/3/13 13:13:54",  6,  -55,  1004,  0,  -1,  -1,  -10,  -26,  -40
2402654, 1710335635, "2024/3/13 13:13:55",  3,  -60,  1001,  0,  0,  -1,  -11,  -26,  -40
