millis,stamp,datetime,accX,accY,accZ,gyroX,gyroY,gyroZ,compX,compY,compZ
1663727, 1710334895, "2024/3/13 13:1:35",  1,  -59,  1003,  0,  0,  -1,  -10,  -26,  -37
1663927, 1710334895, "2024/3/13 13:1:35",  6,  -62,  1004,  0,  0,  0,  -10,  -27,  -37
1664128, 1710334896, "2024/3/13 13:1:36",  0,  -52,  1004,  0,  0,  -1,  -10,  -26,  -36
1664328, 1710334896, "2024/3/13 13:1:36",  7,  -61,  1005,  0,  0,  -1,  -12,  -27,  -36
1664528, 1710334896, "2024/3/13 13:1:36",  5,  -54,  1002,  0,  0,  -1,  -11,  -26,  -34
1664728, 1710334896, "2024/3/13 13:1:36",  3,  -62,  1004,  0,  0,  -1,  -11,  -26,  -34
1664928, 1710334896, "2024/3/13 13:1:36",  9,  -57,  1003,  0,  0,  -1,  -11,  -27,  -35
1665128, 1710334897, "2024/3/13 13:1:37",  8,  -57,  1010,  0,  -1,  -1,  -12,  -28,  -36
1665328, 1710334897, "2024/3/13 13:1:37",  2,  -61,  1001,  0,  0,  -1,  -10,  -25,  -36
1665528, 1710334897, "2024/3/13 13:1:37",  5,  -54,  1001,  0,  0,  -1,  -11,  -25,  -34
1665728, 1710334897, "2024/3/13 13:1:37",  0,  -57,  1003,  0,  0,  0,  -9,  -25,  -35
1665928, 1710334897, "2024/3/13 13:1:37",  7,  -57,  1002,  0,  0,  0,  -11,  -25,  -36
1666128, 1710334898, "2024/3/13 13:1:38",  4,  -56,  1001,  0,  0,  -1,  -9,  -25,  -36
1666328, 1710334898, "2024/3/13 13:1:38",  3,  -64,  1001,  0,  0,  0,  -10,  -25,  -35
1666528, 1710334898, "2024/3/13 13:1:38",  0,  -61,  1004,  0,  -1,  -1,  -11,  -25,  -36
1666728, 1710334898, "2024/3/13 13:1:38",  6,  -56,  1003,  0,  0,  0,  -10,  -25,  -36
1666928, 1710334898, "2024/3/13 13:1:38",  4,  -55,  1001,  0,  0,  0,  -11,  -26,  -36
1667128, 1710334899, "2024/3/13 13:1:39",  5,  -56,  1004,  0,  0,  -1,  -10,  -26,  -36
1667328, 1710334899, "2024/3/13 13:1:39",  1,  -58,  1004,  0,  0,  -1,  -11,  -26,  -36
1667528, 1710334899, "2024/3/13 13:1:39",  6,  -57,  1001,  0,  0,  -1,  -11,  -26,  -36
1667728, 1710334899, "2024/3/13 13:1:39",  2,  -59,  1004,  0,  0,  0,  -9,  -26,  -36
1667928, 1710334899, "2024/3/13 13:1:39",  2,  -58,  1003,  0,  0,  -1,  -10,  -26,  -36
1668128, 1710334900, "2024/3/13 13:1:40",  3,  -54,  1003,  0,  0,  -1,  -10,  -25,  -36
1668328, 1710334900, "2024/3/13 13:1:40",  5,  -61,  1001,  0,  0,  -1,  -11,  -27,  -36
1668528, 1710334900, "2024/3/13 13:1:40",  4,  -59,  1002,  0,  0,  -1,  -10,  -23,  -34
1668728, 1710334900, "2024/3/13 13:1:40",  0,  -56,  1005,  0,  0,  -1,  -10,  -28,  -37
1668928, 1710334900, "2024/3/13 13:1:40",  5,  -55,  1002,  0,  0,  0,  -9,  -29,  -35
1669128, 1710334901, "2024/3/13 13:1:41",  0,  -59,  1006,  0,  -1,  -1,  -11,  -27,  -36
1669328, 1710334901, "2024/3/13 13:1:41",  9,  -50,  1008,  0,  0,  -1,  -9,  -27,  -35
1669528, 1710334901, "2024/3/13 13:1:41",  5,  -56,  1002,  0,  0,  0,  -11,  -27,  -36
1669728, 1710334901, "2024/3/13 13:1:41",  4,  -55,  1000,  0,  0,  -1,  -12,  -25,  -34
1669928, 1710334901, "2024/3/13 13:1:41",  5,  -62,  1003,  0,  0,  -1,  -11,  -26,  -36
1670128, 1710334902, "2024/3/13 13:1:42",  2,  -65,  1000,  0,  0,  -1,  -11,  -27,  -36
1670328, 1710334902, "2024/3/13 13:1:42",  3,  -62,  1005,  0,  0,  -1,  -12,  -27,  -36
1670528, 1710334902, "2024/3/13 13:1:42",  8,  -57,  1001,  0,  0,  0,  -10,  -26,  -34
1670728, 1710334902, "2024/3/13 13:1:42",  6,  -61,  1005,  0,  0,  -1,  -11,  -27,  -35
1670928, 1710334902, "2024/3/13 13:1:42",  5,  -63,  1000,  0,  0,  0,  -11,  -28,  -36
1671128, 1710334903, "2024/3/13 13:1:43",  5,  -58,  1003,  0,  0,  -1,  -11,  -27,  -36
1671328, 1710334903, "2024/3/13 13:1:43",  2,  -56,  1010,  0,  0,  -1,  -11,  -27,  -36
1671528, 1710334903, "2024/3/13 13:1:43",  1,  -58,  1003,  0,  0,  -1,  -11,  -25,  -34
1671728, 1710334903, "2024/3/13 13:1:43",  9,  -58,  1005,  0,  -1,  -1,  -11,  -26,  -36
1671928, 1710334903, "2024/3/13 13:1:43",  -1,  -61,  1005,  0,  0,  -1,  -11,  -26,  -34
1672128, 1710334904, "2024/3/13 13:1:44",  1,  -56,  1001,  0,  0,  0,  -10,  -25,  -36
1672328, 1710334904, "2024/3/13 13:1:44",  1,  -56,  1003,  0,  0,  0,  -11,  -25,  -35
1672528, 1710334904, "2024/3/13 13:1:44",  4,  -59,  1003,  0,  0,  0,  -9,  -27,  -36
1672728, 1710334904, "2024/3/13 13:1:44",  3,  -55,  1001,  0,  -1,  0,  -10,  -27,  -36
1672928, 1710334904, "2024/3/13 13:1:44",  3,  -57,  1004,  0,  0,  -1,  -10,  -27,  -36
1673128, 1710334905, "2024/3/13 13:1:45",  3,  -60,  1000,  0,  0,  -1,  -12,  -27,  -36
1673328, 1710334905, "2024/3/13 13:1:45",  4,  -57,  1003,  0,  0,  0,  -12,  -26,  -35
1673528, 1710334905, "2024/3/13 13:1:45",  5,  -53,  1005,  0,  0,  0,  -9,  -27,  -35
1673728, 1710334905, "2024/3/13 13:1:45",  3,  -53,  1003,  0,  0,  -1,  -10,  -27,  -36
1673928, 1710334905, "2024/3/13 13:1:45",  6,  -56,  1004,  0,  0,  0,  -10,  -27,  -36
1674128, 1710334906, "2024/3/13 13:1:46",  6,  -59,  1005,  0,  0,  -1,  -11,  -27,  -37
1674328, 1710334906, "2024/3/13 13:1:46",  4,  -55,  1005,  0,  0,  -1,  -10,  -26,  -35
1674528, 1710334906, "2024/3/13 13:1:46",  8,  -61,  1003,  0,  0,  0,  -9,  -28,  -35
1674728, 1710334906, "2024/3/13 13:1:46",  7,  -57,  1004,  0,  -1,  0,  -11,  -25,  -36
1674928, 1710334906, "2024/3/13 13:1:46",  6,  -57,  1003,  0,  0,  0,  -10,  -26,  -35
1675128, 1710334907, "2024/3/13 13:1:47",  1,  -55,  1005,  0,  0,  0,  -12,  -26,  -36
1675328, 1710334907, "2024/3/13 13:1:47",  8,  -59,  1001,  0,  0,  -1,  -10,  -26,  -35
1675528, 1710334907, "2024/3/13 13:1:47",  1,  -55,  1001,  0,  0,  -1,  -10,  -27,  -35
1675728, 1710334907, "2024/3/13 13:1:47",  4,  -64,  1003,  0,  0,  0,  -10,  -27,  -35
1675928, 1710334907, "2024/3/13 13:1:47",  7,  -56,  1005,  0,  0,  -1,  -10,  -27,  -35
1676128, 1710334908, "2024/3/13 13:1:48",  3,  -61,  1002,  0,  -1,  -1,  -11,  -27,  -36
1676328, 1710334908, "2024/3/13 13:1:48",  4,  -56,  1003,  0,  0,  0,  -11,  -25,  -36
1676528, 1710334908, "2024/3/13 13:1:48",  7,  -61,  1001,  0,  0,  0,  -10,  -28,  -35
1676728, 1710334908, "2024/3/13 13:1:48",  7,  -55,  1005,  0,  0,  0,  -9,  -26,  -36
1676928, 1710334908, "2024/3/13 13:1:48",  5,  -53,  1002,  0,  0,  -1,  -9,  -27,  -36
1677128, 1710334909, "2024/3/13 13:1:49",  8,  -55,  1006,  0,  0,  -1,  -11,  -26,  -37
1677328, 1710334909, "2024/3/13 13:1:49",  8,  -59,  1005,  0,  0,  -1,  -11,  -27,  -36
1677528, 1710334909, "2024/3/13 13:1:49",  4,  -54,  1005,  0,  0,  0,  -9,  -25,  -36
1677728, 1710334909, "2024/3/13 13:1:49",  5,  -57,  1004,  0,  0,  0,  -12,  -27,  -35
1677928, 1710334909, "2024/3/13 13:1:49",  5,  -59,  1002,  0,  0,  0,  -9,  -27,  -37
1678128, 1710334910, "2024/3/13 13:1:50",  2,  -54,  1004,  0,  0,  -1,  -9,  -27,  -34
1678328, 1710334910, "2024/3/13 13:1:50",  4,  -60,  1001,  0,  0,  -1,  -10,  -25,  -37
1678528, 1710334910, "2024/3/13 13:1:50",  0,  -54,  1003,  0,  0,  0,  -10,  -26,  -35
1678728, 1710334910, "2024/3/13 13:1:50",  7,  -55,  1002,  0,  0,  -1,  -11,  -26,  -35
1678928, 1710334910, "2024/3/13 13:1:50",  8,  -55,  1002,  0,  0,  -1,  -10,  -25,  -35
1679128, 1710334911, "2024/3/13 13:1:51",  6,  -58,  1000,  0,  0,  0,  -10,  -26,  -34
1679328, 1710334911, "2024/3/13 13:1:51",  8,  -56,  999,  0,  0,  0,  -11,  -25,  -35
1679528, 1710334911, "2024/3/13 13:1:51",  7,  -50,  1006,  0,  0,  0,  -10,  -27,  -35
1679728, 1710334911, "2024/3/13 13:1:51",  6,  -60,  1003,  0,  0,  0,  -9,  -25,  -36
1679928, 1710334911, "2024/3/13 13:1:51",  6,  -56,  1005,  0,  0,  0,  -11,  -27,  -37
1680128, 1710334912, "2024/3/13 13:1:52",  4,  -57,  1004,  0,  0,  -1,  -11,  -26,  -36
1680328, 1710334912, "2024/3/13 13:1:52",  5,  -60,  1004,  0,  0,  0,  -11,  -26,  -36
1680528, 1710334912, "2024/3/13 13:1:52",  4,  -58,  1005,  0,  0,  -1,  -12,  -27,  -36
1680728, 1710334912, "2024/3/13 13:1:52",  6,  -61,  1005,  0,  0,  0,  -10,  -25,  -37
1680928, 1710334912, "2024/3/13 13:1:52",  1,  -59,  1004,  0,  0,  -1,  -9,  -28,  -35
1681128, 1710334913, "2024/3/13 13:1:53",  2,  -56,  1001,  0,  0,  0,  -9,  -25,  -36
1681328, 1710334913, "2024/3/13 13:1:53",  2,  -63,  1003,  0,  0,  -1,  -10,  -25,  -36
1681528, 1710334913, "2024/3/13 13:1:53",  9,  -60,  1006,  0,  0,  -1,  -11,  -26,  -36
1681728, 1710334913, "2024/3/13 13:1:53",  6,  -58,  1005,  0,  0,  -1,  -10,  -27,  -35
1681928, 1710334913, "2024/3/13 13:1:53",  4,  -58,  1003,  0,  0,  -1,  -9,  -27,  -36
1682128, 1710334914, "2024/3/13 13:1:54",  11,  -55,  1006,  0,  0,  -1,  -10,  -26,  -34
1682328, 1710334914, "2024/3/13 13:1:54",  2,  -59,  1003,  0,  0,  -1,  -10,  -27,  -35
1682528, 1710334914, "2024/3/13 13:1:54",  8,  -58,  1006,  0,  -1,  0,  -8,  -25,  -36
1682728, 1710334914, "2024/3/13 13:1:54",  7,  -58,  1006,  0,  0,  -1,  -10,  -27,  -35
1682928, 1710334914, "2024/3/13 13:1:54",  5,  -58,  1004,  0,  0,  0,  -11,  -27,  -36
1683128, 1710334915, "2024/3/13 13:1:55",  7,  -56,  1003,  0,  0,  0,  -11,  -26,  -36
1683328, 1710334915, "2024/3/13 13:1:55",  4,  -57,  1004,  0,  0,  -1,  -10,  -27,  -36
1683528, 1710334915, "2024/3/13 13:1:55",  4,  -57,  1003,  0,  0,  0,  -10,  -24,  -34
1683728, 1710334915, "2024/3/13 13:1:55",  5,  -54,  1002,  0,  0,  0,  -10,  -26,  -36
1683928, 1710334915, "2024/3/13 13:1:55",  3,  -59,  1004,  0,  0,  -1,  -11,  -26,  -34
1684128, 1710334916, "2024/3/13 13:1:56",  5,  -61,  1002,  0,  0,  -1,  -11,  -25,  -36
1684328, 1710334916, "2024/3/13 13:1:56",  2,  -57,  1005,  0,  0,  0,  -10,  -26,  -36
1684528, 1710334916, "2024/3/13 13:1:56",  2,  -57,  1005,  0,  0,  -1,  -10,  -26,  -36
1684728, 1710334916, "2024/3/13 13:1:56",  4,  -57,  1007,  0,  0,  0,  -12,  -26,  -36
1684928, 1710334916, "2024/3/13 13:1:56",  4,  -58,  1004,  0,  0,  -1,  -10,  -26,  -36
1685128, 1710334917, "2024/3/13 13:1:57",  2,  -61,  1005,  0,  0,  -1,  -12,  -25,  -35
1685328, 1710334917, "2024/3/13 13:1:57",  3,  -59,  1004,  0,  -1,  -1,  -11,  -26,  -36
1685528, 1710334917, "2024/3/13 13:1:57",  7,  -55,  1004,  0,  0,  0,  -11,  -25,  -35
1685728, 1710334917, "2024/3/13 13:1:57",  6,  -57,  1003,  0,  0,  0,  -11,  -26,  -36
1685928, 1710334917, "2024/3/13 13:1:57",  3,  -59,  1004,  0,  0,  -1,  -9,  -25,  -36
1686128, 1710334918, "2024/3/13 13:1:58",  7,  -55,  1002,  0,  0,  0,  -10,  -27,  -36
1686328, 1710334918, "2024/3/13 13:1:58",  4,  -57,  1004,  0,  0,  0,  -11,  -27,  -36
1686528, 1710334918, "2024/3/13 13:1:58",  3,  -54,  1003,  0,  0,  -1,  -12,  -27,  -35
1686728, 1710334918, "2024/3/13 13:1:58",  7,  -55,  1002,  0,  0,  -1,  -9,  -26,  -36
1686928, 1710334918, "2024/3/13 13:1:58",  10,  -58,  1005,  0,  -1,  -1,  -10,  -25,  -35
1687128, 1710334919, "2024/3/13 13:1:59",  6,  -56,  1000,  0,  0,  -1,  -9,  -25,  -35
1687328, 1710334919, "2024/3/13 13:1:59",  3,  -62,  1002,  0,  0,  -1,  -9,  -27,  -36
1687528, 1710334919, "2024/3/13 13:1:59",  8,  -56,  1001,  0,  -1,  -1,  -10,  -27,  -34
1687728, 1710334919, "2024/3/13 13:1:59",  4,  -59,  1005,  0,  0,  -1,  -9,  -25,  -35
1687928, 1710334919, "2024/3/13 13:1:59",  2,  -58,  1003,  0,  0,  0,  -11,  -27,  -35
1688128, 1710334920, "2024/3/13 13:2:0",  5,  -54,  1006,  0,  0,  -1,  -9,  -25,  -35
1688328, 1710334920, "2024/3/13 13:2:0",  7,  -59,  1004,  0,  0,  -1,  -9,  -25,  -35
1688528, 1710334920, "2024/3/13 13:2:0",  7,  -55,  1007,  0,  0,  -1,  -10,  -27,  -36
1688728, 1710334920, "2024/3/13 13:2:0",  -2,  -63,  1006,  0,  0,  -1,  -10,  -25,  -36
1688928, 1710334920, "2024/3/13 13:2:0",  9,  -60,  1005,  0,  0,  -1,  -11,  -24,  -37
1689128, 1710334921, "2024/3/13 13:2:1",  5,  -57,  1003,  0,  0,  -1,  -11,  -26,  -36
1689328, 1710334921, "2024/3/13 13:2:1",  5,  -61,  1003,  0,  0,  -1,  -9,  -27,  -36
1689528, 1710334921, "2024/3/13 13:2:1",  1,  -58,  1006,  0,  0,  0,  -11,  -27,  -36
1689728, 1710334921, "2024/3/13 13:2:1",  6,  -52,  1001,  0,  0,  -1,  -10,  -27,  -36
1689928, 1710334921, "2024/3/13 13:2:1",  3,  -60,  1003,  0,  0,  -1,  -11,  -25,  -35
1690128, 1710334922, "2024/3/13 13:2:2",  8,  -56,  1003,  0,  0,  -1,  -11,  -27,  -36
1690328, 1710334922, "2024/3/13 13:2:2",  2,  -59,  999,  0,  -1,  -1,  -10,  -26,  -35
1690528, 1710334922, "2024/3/13 13:2:2",  8,  -57,  1003,  0,  0,  -1,  -11,  -27,  -36
1690728, 1710334922, "2024/3/13 13:2:2",  5,  -57,  1002,  0,  0,  -1,  -11,  -26,  -36
1690928, 1710334922, "2024/3/13 13:2:2",  4,  -60,  1001,  0,  0,  -1,  -10,  -27,  -37
1691128, 1710334923, "2024/3/13 13:2:3",  7,  -60,  1004,  0,  0,  -1,  -11,  -25,  -37
1691328, 1710334923, "2024/3/13 13:2:3",  5,  -62,  1004,  0,  0,  -1,  -10,  -27,  -36
1691528, 1710334923, "2024/3/13 13:2:3",  2,  -55,  1005,  0,  0,  0,  -9,  -26,  -36
1691728, 1710334923, "2024/3/13 13:2:3",  4,  -52,  1001,  0,  0,  0,  -12,  -26,  -37
1691928, 1710334923, "2024/3/13 13:2:3",  7,  -57,  1004,  0,  0,  -1,  -10,  -27,  -34
1692128, 1710334924, "2024/3/13 13:2:4",  2,  -59,  1007,  0,  0,  0,  -8,  -26,  -37
1692328, 1710334924, "2024/3/13 13:2:4",  4,  -57,  1002,  0,  0,  -1,  -11,  -27,  -35
1692528, 1710334924, "2024/3/13 13:2:4",  6,  -52,  1005,  0,  0,  0,  -11,  -25,  -36
1692728, 1710334924, "2024/3/13 13:2:4",  5,  -60,  1005,  0,  0,  -1,  -9,  -24,  -35
1692928, 1710334924, "2024/3/13 13:2:4",  3,  -55,  1006,  0,  0,  0,  -10,  -25,  -37
1693128, 1710334925, "2024/3/13 13:2:5",  4,  -57,  1002,  0,  0,  0,  -11,  -27,  -35
1693328, 1710334925, "2024/3/13 13:2:5",  3,  -64,  1010,  0,  0,  0,  -10,  -27,  -36
1693528, 1710334925, "2024/3/13 13:2:5",  3,  -57,  1003,  0,  0,  -1,  -10,  -25,  -36
1693728, 1710334925, "2024/3/13 13:2:5",  4,  -52,  1001,  0,  0,  -1,  -9,  -27,  -36
1693928, 1710334925, "2024/3/13 13:2:5",  2,  -64,  1002,  0,  0,  -1,  -11,  -26,  -36
1694128, 1710334926, "2024/3/13 13:2:6",  3,  -56,  1005,  0,  0,  0,  -10,  -26,  -36
1694328, 1710334926, "2024/3/13 13:2:6",  9,  -52,  1007,  0,  0,  0,  -9,  -26,  -37
1694528, 1710334926, "2024/3/13 13:2:6",  5,  -53,  999,  0,  -1,  0,  -11,  -26,  -36
1694728, 1710334926, "2024/3/13 13:2:6",  3,  -51,  1003,  0,  0,  -1,  -10,  -25,  -36
1694928, 1710334926, "2024/3/13 13:2:6",  5,  -53,  1004,  0,  0,  -1,  -10,  -26,  -35
1695128, 1710334927, "2024/3/13 13:2:7",  3,  -58,  1001,  0,  0,  0,  -12,  -28,  -35
1695328, 1710334927, "2024/3/13 13:2:7",  5,  -57,  1002,  0,  0,  -1,  -11,  -26,  -35
1695528, 1710334927, "2024/3/13 13:2:7",  5,  -56,  1004,  0,  0,  -1,  -11,  -28,  -37
1695728, 1710334927, "2024/3/13 13:2:7",  2,  -59,  1000,  0,  0,  0,  -11,  -27,  -35
1695928, 1710334927, "2024/3/13 13:2:7",  1,  -57,  1000,  0,  0,  -1,  -11,  -27,  -36
1696128, 1710334928, "2024/3/13 13:2:8",  7,  -58,  1007,  0,  0,  -1,  -9,  -28,  -35
1696328, 1710334928, "2024/3/13 13:2:8",  7,  -53,  1004,  0,  -1,  0,  -11,  -25,  -35
1696528, 1710334928, "2024/3/13 13:2:8",  3,  -56,  1003,  0,  0,  -1,  -10,  -26,  -36
1696728, 1710334928, "2024/3/13 13:2:8",  5,  -55,  1004,  0,  0,  0,  -10,  -25,  -36
1696928, 1710334928, "2024/3/13 13:2:8",  2,  -60,  1004,  0,  0,  0,  -11,  -26,  -36
1697128, 1710334929, "2024/3/13 13:2:9",  8,  -57,  1002,  0,  0,  0,  -9,  -26,  -35
1697328, 1710334929, "2024/3/13 13:2:9",  5,  -61,  1008,  0,  -1,  0,  -11,  -25,  -36
1697528, 1710334929, "2024/3/13 13:2:9",  4,  -59,  1004,  0,  0,  -1,  -10,  -26,  -34
1697728, 1710334929, "2024/3/13 13:2:9",  9,  -62,  1010,  0,  0,  -1,  -11,  -26,  -35
1697928, 1710334929, "2024/3/13 13:2:9",  2,  -55,  1002,  0,  0,  0,  -9,  -27,  -35
1698128, 1710334930, "2024/3/13 13:2:10",  8,  -58,  1002,  0,  0,  0,  -11,  -25,  -35
1698328, 1710334930, "2024/3/13 13:2:10",  6,  -56,  1002,  0,  0,  0,  -10,  -25,  -36
1698528, 1710334930, "2024/3/13 13:2:10",  7,  -57,  1004,  0,  0,  -1,  -11,  -25,  -36
1698728, 1710334930, "2024/3/13 13:2:10",  6,  -56,  1002,  0,  -1,  -1,  -9,  -26,  -34
1698928, 1710334930, "2024/3/13 13:2:10",  4,  -57,  1003,  0,  -1,  0,  -10,  -26,  -35
1699128, 1710334931, "2024/3/13 13:2:11",  6,  -56,  1005,  0,  0,  -1,  -10,  -26,  -33
1699328, 1710334931, "2024/3/13 13:2:11",  9,  -57,  1003,  0,  -1,  0,  -9,  -26,  -33
1699528, 1710334931, "2024/3/13 13:2:11",  6,  -56,  1006,  0,  0,  -1,  -11,  -28,  -36
1699728, 1710334931, "2024/3/13 13:2:11",  -3,  -58,  1000,  0,  0,  0,  -11,  -26,  -35
1699928, 1710334931, "2024/3/13 13:2:11",  10,  -62,  1003,  0,  0,  -1,  -11,  -24,  -35
1700128, 1710334932, "2024/3/13 13:2:12",  6,  -57,  1005,  0,  0,  -1,  -10,  -25,  -35
1700328, 1710334932, "2024/3/13 13:2:12",  6,  -55,  1004,  0,  0,  0,  -11,  -25,  -35
1700528, 1710334932, "2024/3/13 13:2:12",  3,  -62,  1005,  0,  0,  0,  -11,  -26,  -35
1700728, 1710334932, "2024/3/13 13:2:12",  7,  -54,  1005,  0,  0,  0,  -9,  -26,  -34
1700928, 1710334932, "2024/3/13 13:2:12",  3,  -62,  1004,  0,  0,  0,  -10,  -26,  -34
1701128, 1710334933, "2024/3/13 13:2:13",  5,  -58,  1005,  0,  0,  0,  -9,  -27,  -37
1701328, 1710334933, "2024/3/13 13:2:13",  6,  -57,  1004,  0,  0,  -1,  -9,  -25,  -33
1701528, 1710334933, "2024/3/13 13:2:13",  2,  -58,  1003,  0,  0,  -1,  -11,  -28,  -36
1701728, 1710334933, "2024/3/13 13:2:13",  5,  -58,  1005,  0,  0,  -1,  -11,  -26,  -35
1701928, 1710334933, "2024/3/13 13:2:13",  5,  -56,  1004,  0,  0,  -1,  -11,  -27,  -35
1702128, 1710334934, "2024/3/13 13:2:14",  3,  -56,  1004,  0,  -1,  -1,  -10,  -26,  -36
1702328, 1710334934, "2024/3/13 13:2:14",  7,  -60,  1009,  0,  0,  -1,  -12,  -27,  -34
1702528, 1710334934, "2024/3/13 13:2:14",  4,  -58,  1000,  0,  0,  0,  -11,  -25,  -35
1702728, 1710334934, "2024/3/13 13:2:14",  5,  -57,  1006,  0,  0,  0,  -9,  -25,  -35
1702928, 1710334934, "2024/3/13 13:2:14",  5,  -61,  1006,  0,  0,  -1,  -11,  -27,  -36
1703128, 1710334935, "2024/3/13 13:2:15",  5,  -59,  1002,  0,  0,  -1,  -10,  -26,  -33
1703328, 1710334935, "2024/3/13 13:2:15",  5,  -60,  1003,  0,  0,  -1,  -11,  -26,  -35
1703528, 1710334935, "2024/3/13 13:2:15",  3,  -62,  1005,  0,  0,  0,  -12,  -26,  -35
1703728, 1710334935, "2024/3/13 13:2:15",  2,  -60,  1005,  0,  0,  -1,  -10,  -26,  -36
1703928, 1710334935, "2024/3/13 13:2:15",  6,  -61,  1002,  0,  0,  -1,  -11,  -26,  -35
1704128, 1710334936, "2024/3/13 13:2:16",  0,  -59,  1006,  0,  0,  0,  -11,  -26,  -33
1704328, 1710334936, "2024/3/13 13:2:16",  3,  -59,  1004,  0,  0,  -1,  -12,  -26,  -34
1704528, 1710334936, "2024/3/13 13:2:16",  0,  -58,  1002,  0,  0,  0,  -9,  -26,  -34
1704728, 1710334936, "2024/3/13 13:2:16",  8,  -57,  1005,  0,  -1,  -1,  -10,  -26,  -35
1704928, 1710334936, "2024/3/13 13:2:16",  0,  -55,  997,  0,  0,  -1,  -10,  -26,  -35
1705128, 1710334937, "2024/3/13 13:2:17",  6,  -54,  1004,  0,  0,  0,  -10,  -25,  -34
1705328, 1710334937, "2024/3/13 13:2:17",  3,  -53,  1000,  0,  0,  -1,  -10,  -25,  -34
1705528, 1710334937, "2024/3/13 13:2:17",  5,  -57,  1003,  0,  0,  -1,  -9,  -26,  -35
1705728, 1710334937, "2024/3/13 13:2:17",  5,  -57,  1005,  0,  0,  0,  -9,  -27,  -35
1705928, 1710334937, "2024/3/13 13:2:17",  3,  -61,  1004,  0,  -1,  0,  -10,  -26,  -33
1706128, 1710334938, "2024/3/13 13:2:18",  4,  -56,  1003,  0,  0,  -1,  -11,  -25,  -36
1706328, 1710334938, "2024/3/13 13:2:18",  8,  -59,  1005,  0,  0,  0,  -10,  -26,  -34
1706528, 1710334938, "2024/3/13 13:2:18",  8,  -55,  1005,  0,  0,  -1,  -10,  -25,  -34
1706728, 1710334938, "2024/3/13 13:2:18",  1,  -53,  1003,  0,  -1,  -1,  -10,  -25,  -34
1706928, 1710334938, "2024/3/13 13:2:18",  8,  -52,  1002,  0,  0,  -1,  -9,  -26,  -35
1707128, 1710334939, "2024/3/13 13:2:19",  5,  -48,  1004,  0,  0,  -1,  -9,  -27,  -34
1707328, 1710334939, "2024/3/13 13:2:19",  3,  -60,  1003,  0,  0,  0,  -10,  -25,  -35
1707528, 1710334939, "2024/3/13 13:2:19",  6,  -64,  1002,  0,  0,  0,  -9,  -26,  -34
1707728, 1710334939, "2024/3/13 13:2:19",  5,  -63,  1000,  0,  0,  0,  -10,  -26,  -33
1707928, 1710334939, "2024/3/13 13:2:19",  3,  -59,  1004,  0,  0,  -1,  -9,  -26,  -34
1708128, 1710334940, "2024/3/13 13:2:20",  8,  -54,  1001,  0,  0,  -1,  -11,  -26,  -35
1708328, 1710334940, "2024/3/13 13:2:20",  6,  -49,  1001,  0,  0,  0,  -11,  -27,  -36
1708528, 1710334940, "2024/3/13 13:2:20",  4,  -54,  1006,  0,  0,  0,  -11,  -26,  -36
1708728, 1710334940, "2024/3/13 13:2:20",  4,  -57,  1002,  0,  0,  0,  -9,  -25,  -36
1708928, 1710334940, "2024/3/13 13:2:20",  -2,  -58,  998,  0,  0,  -1,  -9,  -28,  -35
1709128, 1710334941, "2024/3/13 13:2:21",  5,  -62,  1002,  0,  0,  -1,  -10,  -27,  -36
1709328, 1710334941, "2024/3/13 13:2:21",  2,  -56,  1001,  0,  0,  0,  -8,  -24,  -36
1709528, 1710334941, "2024/3/13 13:2:21",  5,  -57,  1001,  0,  0,  -1,  -10,  -27,  -36
1709728, 1710334941, "2024/3/13 13:2:21",  5,  -59,  1001,  0,  0,  -1,  -10,  -26,  -34
1709928, 1710334941, "2024/3/13 13:2:21",  3,  -62,  1005,  0,  0,  -1,  -10,  -26,  -34
1710128, 1710334942, "2024/3/13 13:2:22",  1,  -60,  1008,  0,  0,  0,  -10,  -26,  -35
1710328, 1710334942, "2024/3/13 13:2:22",  4,  -60,  1002,  0,  0,  -1,  -10,  -26,  -35
1710528, 1710334942, "2024/3/13 13:2:22",  8,  -58,  1005,  0,  0,  0,  -11,  -25,  -35
1710728, 1710334942, "2024/3/13 13:2:22",  6,  -55,  1004,  0,  0,  0,  -10,  -26,  -35
1710928, 1710334942, "2024/3/13 13:2:22",  8,  -55,  1001,  0,  -1,  -1,  -11,  -26,  -34
1711128, 1710334943, "2024/3/13 13:2:23",  3,  -62,  1003,  0,  0,  0,  -10,  -26,  -35
1711328, 1710334943, "2024/3/13 13:2:23",  8,  -55,  1002,  0,  0,  -1,  -9,  -27,  -35
1711528, 1710334943, "2024/3/13 13:2:23",  2,  -61,  1002,  0,  0,  -1,  -11,  -27,  -35
1711728, 1710334943, "2024/3/13 13:2:23",  3,  -57,  1003,  0,  0,  -1,  -10,  -27,  -34
1711928, 1710334943, "2024/3/13 13:2:23",  8,  -56,  1004,  0,  -1,  -1,  -10,  -27,  -36
1712128, 1710334944, "2024/3/13 13:2:24",  7,  -57,  1002,  0,  0,  -1,  -10,  -25,  -36
1712328, 1710334944, "2024/3/13 13:2:24",  3,  -59,  1006,  0,  0,  -1,  -10,  -26,  -35
1712528, 1710334944, "2024/3/13 13:2:24",  2,  -49,  1006,  0,  0,  -1,  -11,  -28,  -35
1712728, 1710334944, "2024/3/13 13:2:24",  3,  -57,  1003,  0,  0,  0,  -10,  -25,  -35
1712928, 1710334944, "2024/3/13 13:2:24",  6,  -58,  1002,  0,  0,  0,  -10,  -26,  -35
1713128, 1710334945, "2024/3/13 13:2:25",  8,  -61,  1002,  0,  0,  0,  -9,  -27,  -33
1713328, 1710334945, "2024/3/13 13:2:25",  6,  -55,  1002,  0,  0,  -1,  -9,  -26,  -34
1713528, 1710334945, "2024/3/13 13:2:25",  15,  -52,  1004,  0,  0,  0,  -9,  -25,  -35
1713728, 1710334945, "2024/3/13 13:2:25",  5,  -58,  1005,  0,  0,  -1,  -9,  -26,  -34
1713928, 1710334945, "2024/3/13 13:2:25",  5,  -59,  1005,  0,  0,  -1,  -10,  -25,  -35
1714128, 1710334946, "2024/3/13 13:2:26",  9,  -60,  1007,  0,  0,  0,  -10,  -26,  -36
1714328, 1710334946, "2024/3/13 13:2:26",  6,  -54,  1001,  0,  -1,  0,  -11,  -27,  -36
1714528, 1710334946, "2024/3/13 13:2:26",  9,  -62,  1003,  0,  0,  -1,  -10,  -26,  -33
1714728, 1710334946, "2024/3/13 13:2:26",  1,  -61,  1004,  0,  0,  0,  -12,  -26,  -34
1714928, 1710334946, "2024/3/13 13:2:26",  10,  -61,  1007,  0,  0,  -1,  -11,  -25,  -35
1715128, 1710334947, "2024/3/13 13:2:27",  7,  -57,  1004,  0,  0,  -1,  -11,  -26,  -35
1715328, 1710334947, "2024/3/13 13:2:27",  -1,  -60,  999,  0,  0,  0,  -11,  -26,  -34
1715528, 1710334947, "2024/3/13 13:2:27",  4,  -60,  1005,  0,  0,  0,  -9,  -26,  -36
1715728, 1710334947, "2024/3/13 13:2:27",  6,  -60,  1003,  0,  0,  -1,  -11,  -24,  -35
1715928, 1710334947, "2024/3/13 13:2:27",  5,  -62,  1001,  0,  -1,  -1,  -11,  -25,  -34
1716128, 1710334948, "2024/3/13 13:2:28",  3,  -62,  1003,  0,  0,  -1,  -12,  -27,  -34
1716328, 1710334948, "2024/3/13 13:2:28",  6,  -56,  1005,  0,  0,  -1,  -9,  -26,  -35
1716528, 1710334948, "2024/3/13 13:2:28",  11,  -59,  1004,  0,  0,  -1,  -10,  -25,  -34
1716728, 1710334948, "2024/3/13 13:2:28",  4,  -59,  1004,  0,  0,  0,  -9,  -26,  -34
1716928, 1710334948, "2024/3/13 13:2:28",  5,  -54,  1005,  0,  0,  0,  -11,  -25,  -35
1717128, 1710334949, "2024/3/13 13:2:29",  2,  -55,  1004,  0,  0,  -1,  -10,  -26,  -35
1717328, 1710334949, "2024/3/13 13:2:29",  3,  -59,  1005,  0,  0,  -1,  -9,  -27,  -36
1717528, 1710334949, "2024/3/13 13:2:29",  5,  -58,  1002,  0,  0,  0,  -9,  -25,  -36
1717728, 1710334949, "2024/3/13 13:2:29",  5,  -57,  1006,  0,  0,  0,  -10,  -27,  -35
1717928, 1710334949, "2024/3/13 13:2:29",  6,  -59,  1004,  0,  0,  -1,  -9,  -25,  -35
1718128, 1710334950, "2024/3/13 13:2:30",  4,  -58,  1004,  0,  0,  -1,  -10,  -25,  -36
1718328, 1710334950, "2024/3/13 13:2:30",  5,  -54,  1005,  0,  0,  0,  -12,  -26,  -36
1718528, 1710334950, "2024/3/13 13:2:30",  3,  -60,  1007,  0,  0,  -1,  -10,  -27,  -35
1718728, 1710334950, "2024/3/13 13:2:30",  4,  -50,  1003,  0,  0,  -1,  -11,  -25,  -34
1718928, 1710334950, "2024/3/13 13:2:30",  5,  -56,  1000,  0,  0,  -1,  -9,  -26,  -35
1719128, 1710334951, "2024/3/13 13:2:31",  6,  -63,  1006,  0,  0,  -1,  -11,  -26,  -36
1719328, 1710334951, "2024/3/13 13:2:31",  3,  -55,  1006,  0,  0,  0,  -10,  -26,  -35
1719528, 1710334951, "2024/3/13 13:2:31",  5,  -61,  999,  0,  0,  0,  -9,  -26,  -34
1719728, 1710334951, "2024/3/13 13:2:31",  3,  -61,  1005,  0,  -1,  -1,  -9,  -27,  -36
1719928, 1710334951, "2024/3/13 13:2:31",  8,  -54,  1002,  0,  0,  0,  -10,  -25,  -35
1720128, 1710334952, "2024/3/13 13:2:32",  5,  -64,  1006,  0,  0,  -1,  -10,  -26,  -36
1720328, 1710334952, "2024/3/13 13:2:32",  5,  -61,  1004,  0,  0,  -1,  -10,  -27,  -35
1720528, 1710334952, "2024/3/13 13:2:32",  1,  -57,  1004,  0,  0,  -1,  -11,  -26,  -35
1720728, 1710334952, "2024/3/13 13:2:32",  3,  -58,  1003,  0,  0,  -1,  -11,  -26,  -35
1720928, 1710334952, "2024/3/13 13:2:32",  0,  -55,  1002,  0,  0,  0,  -11,  -26,  -35
1721128, 1710334953, "2024/3/13 13:2:33",  9,  -53,  1005,  0,  0,  -1,  -9,  -26,  -35
1721328, 1710334953, "2024/3/13 13:2:33",  0,  -56,  1003,  0,  0,  0,  -11,  -25,  -34
1721528, 1710334953, "2024/3/13 13:2:33",  10,  -56,  1004,  0,  0,  0,  -10,  -27,  -35
1721728, 1710334953, "2024/3/13 13:2:33",  6,  -60,  1006,  0,  0,  -1,  -9,  -27,  -35
1721928, 1710334953, "2024/3/13 13:2:33",  3,  -55,  1002,  0,  0,  -1,  -10,  -26,  -34
1722128, 1710334954, "2024/3/13 13:2:34",  3,  -56,  1007,  0,  0,  0,  -10,  -26,  -32
1722328, 1710334954, "2024/3/13 13:2:34",  5,  -60,  1000,  0,  0,  0,  -10,  -25,  -33
1722528, 1710334954, "2024/3/13 13:2:34",  6,  -60,  1000,  0,  0,  0,  -11,  -27,  -32
1722728, 1710334954, "2024/3/13 13:2:34",  3,  -61,  1009,  0,  0,  -1,  -8,  -26,  -33
1722928, 1710334954, "2024/3/13 13:2:34",  10,  -49,  1003,  0,  -1,  0,  -10,  -26,  -33
1723128, 1710334955, "2024/3/13 13:2:35",  8,  -54,  1004,  0,  0,  0,  -10,  -27,  -33
1723328, 1710334955, "2024/3/13 13:2:35",  3,  -52,  1003,  1,  -1,  0,  -9,  -24,  -33
1723528, 1710334955, "2024/3/13 13:2:35",  7,  -55,  1006,  0,  0,  0,  -11,  -26,  -31
1723728, 1710334955, "2024/3/13 13:2:35",  7,  -63,  1004,  0,  0,  0,  -9,  -25,  -34
1723928, 1710334955, "2024/3/13 13:2:35",  4,  -57,  1005,  0,  -1,  -1,  -10,  -27,  -33
1724128, 1710334956, "2024/3/13 13:2:36",  5,  -59,  1005,  0,  0,  -1,  -10,  -26,  -35
1724328, 1710334956, "2024/3/13 13:2:36",  3,  -60,  1008,  0,  -1,  -1,  -10,  -26,  -34
1724528, 1710334956, "2024/3/13 13:2:36",  6,  -57,  1001,  0,  0,  -1,  -9,  -27,  -34
1724728, 1710334956, "2024/3/13 13:2:36",  0,  -55,  1000,  1,  0,  -1,  -8,  -25,  -34
1724928, 1710334956, "2024/3/13 13:2:36",  7,  -54,  1002,  0,  0,  -1,  -9,  -24,  -35
1725128, 1710334957, "2024/3/13 13:2:37",  7,  -62,  1003,  0,  0,  -1,  -9,  -25,  -36
1725328, 1710334957, "2024/3/13 13:2:37",  3,  -60,  1000,  0,  0,  -1,  -10,  -26,  -35
1725528, 1710334957, "2024/3/13 13:2:37",  2,  -48,  1001,  0,  0,  0,  -9,  -26,  -35
1725728, 1710334957, "2024/3/13 13:2:37",  4,  -58,  1005,  0,  0,  0,  -10,  -25,  -36
1725928, 1710334957, "2024/3/13 13:2:37",  3,  -60,  1003,  0,  0,  -1,  -10,  -25,  -36
1726128, 1710334958, "2024/3/13 13:2:38",  -1,  -56,  1006,  0,  0,  0,  -9,  -26,  -38
1726328, 1710334958, "2024/3/13 13:2:38",  -1,  -58,  1000,  0,  0,  0,  -9,  -26,  -37
1726528, 1710334958, "2024/3/13 13:2:38",  3,  -59,  1009,  0,  0,  -1,  -9,  -27,  -36
1726728, 1710334958, "2024/3/13 13:2:38",  2,  -56,  1002,  0,  0,  -1,  -11,  -25,  -37
1726928, 1710334958, "2024/3/13 13:2:38",  6,  -56,  1004,  0,  0,  -1,  -9,  -27,  -37
1727128, 1710334959, "2024/3/13 13:2:39",  5,  -62,  1008,  0,  0,  -1,  -10,  -26,  -38
1727328, 1710334959, "2024/3/13 13:2:39",  8,  -52,  1007,  0,  0,  0,  -9,  -26,  -38
1727528, 1710334959, "2024/3/13 13:2:39",  3,  -56,  1002,  0,  0,  -1,  -11,  -26,  -38
1727728, 1710334959, "2024/3/13 13:2:39",  3,  -54,  1000,  0,  0,  0,  -9,  -26,  -38
1727928, 1710334959, "2024/3/13 13:2:39",  4,  -58,  1003,  0,  -1,  -1,  -8,  -26,  -38
1728128, 1710334960, "2024/3/13 13:2:40",  2,  -49,  1007,  0,  0,  0,  -9,  -27,  -38
1728328, 1710334960, "2024/3/13 13:2:40",  4,  -54,  1000,  0,  0,  -1,  -9,  -26,  -38
1728528, 1710334960, "2024/3/13 13:2:40",  7,  -59,  1002,  0,  0,  0,  -9,  -26,  -37
1728728, 1710334960, "2024/3/13 13:2:40",  8,  -54,  1008,  0,  0,  0,  -9,  -27,  -39
1728928, 1710334961, "2024/3/13 13:2:41",  5,  -56,  1000,  0,  0,  0,  -11,  -25,  -38
1729128, 1710334961, "2024/3/13 13:2:41",  11,  -57,  1004,  0,  0,  -1,  -8,  -27,  -36
1729328, 1710334961, "2024/3/13 13:2:41",  4,  -55,  1004,  0,  0,  -1,  -9,  -26,  -36
1729528, 1710334961, "2024/3/13 13:2:41",  1,  -61,  1007,  0,  0,  0,  -9,  -24,  -37
1729728, 1710334961, "2024/3/13 13:2:41",  2,  -58,  1007,  0,  0,  -1,  -9,  -26,  -36
1729928, 1710334961, "2024/3/13 13:2:41",  3,  -60,  1004,  0,  0,  0,  -10,  -26,  -37
1730128, 1710334962, "2024/3/13 13:2:42",  2,  -59,  1003,  0,  0,  -1,  -10,  -24,  -39
1730328, 1710334962, "2024/3/13 13:2:42",  10,  -58,  1008,  0,  0,  -1,  -10,  -26,  -38
1730528, 1710334962, "2024/3/13 13:2:42",  5,  -61,  1001,  0,  0,  -1,  -9,  -26,  -37
1730728, 1710334962, "2024/3/13 13:2:42",  9,  -60,  1000,  0,  0,  -1,  -9,  -26,  -38
1730928, 1710334963, "2024/3/13 13:2:43",  10,  -62,  1002,  0,  0,  0,  -10,  -26,  -36
1731128, 1710334963, "2024/3/13 13:2:43",  2,  -54,  1003,  0,  0,  0,  -10,  -25,  -38
1731328, 1710334963, "2024/3/13 13:2:43",  7,  -56,  1004,  0,  0,  -1,  -10,  -26,  -37
1731528, 1710334963, "2024/3/13 13:2:43",  6,  -54,  1004,  0,  0,  0,  -9,  -26,  -36
1731728, 1710334963, "2024/3/13 13:2:43",  4,  -62,  1001,  0,  0,  -1,  -10,  -27,  -36
1731928, 1710334964, "2024/3/13 13:2:44",  8,  -52,  1002,  0,  0,  0,  -10,  -26,  -39
1732128, 1710334964, "2024/3/13 13:2:44",  8,  -54,  1005,  0,  0,  -1,  -8,  -27,  -36
1732328, 1710334964, "2024/3/13 13:2:44",  1,  -53,  1007,  0,  -1,  0,  -8,  -25,  -37
1732528, 1710334964, "2024/3/13 13:2:44",  8,  -59,  1005,  0,  0,  0,  -10,  -26,  -36
1732728, 1710334964, "2024/3/13 13:2:44",  9,  -53,  1001,  0,  -1,  -1,  -10,  -26,  -35
1732928, 1710334965, "2024/3/13 13:2:45",  8,  -56,  1006,  0,  0,  -1,  -9,  -26,  -37
1733128, 1710334965, "2024/3/13 13:2:45",  3,  -58,  1000,  0,  0,  0,  -10,  -25,  -37
1733328, 1710334965, "2024/3/13 13:2:45",  9,  -58,  1005,  0,  0,  -1,  -9,  -26,  -36
1733528, 1710334965, "2024/3/13 13:2:45",  7,  -58,  1004,  0,  -1,  -1,  -8,  -24,  -40
1733728, 1710334965, "2024/3/13 13:2:45",  5,  -59,  1004,  0,  0,  -1,  -9,  -26,  -37
1733928, 1710334966, "2024/3/13 13:2:46",  7,  -59,  1004,  0,  0,  0,  -10,  -25,  -37
1734128, 1710334966, "2024/3/13 13:2:46",  2,  -57,  1002,  0,  0,  0,  -10,  -25,  -38
1734328, 1710334966, "2024/3/13 13:2:46",  4,  -57,  1003,  0,  0,  0,  -9,  -25,  -36
1734528, 1710334966, "2024/3/13 13:2:46",  3,  -67,  1005,  0,  0,  0,  -10,  -24,  -36
1734728, 1710334966, "2024/3/13 13:2:46",  6,  -60,  1008,  0,  0,  -1,  -9,  -26,  -38
1734928, 1710334967, "2024/3/13 13:2:47",  1,  -55,  1002,  0,  0,  0,  -9,  -26,  -38
1735128, 1710334967, "2024/3/13 13:2:47",  0,  -59,  1001,  0,  0,  -1,  -8,  -26,  -38
1735328, 1710334967, "2024/3/13 13:2:47",  2,  -61,  1003,  0,  0,  0,  -9,  -27,  -37
1735528, 1710334967, "2024/3/13 13:2:47",  4,  -56,  1004,  0,  0,  -1,  -8,  -27,  -37
1735728, 1710334967, "2024/3/13 13:2:47",  11,  -61,  1002,  0,  0,  0,  -11,  -24,  -37
1735928, 1710334968, "2024/3/13 13:2:48",  2,  -61,  1000,  0,  0,  -1,  -10,  -25,  -36
1736128, 1710334968, "2024/3/13 13:2:48",  3,  -62,  1001,  0,  0,  0,  -8,  -26,  -36
1736328, 1710334968, "2024/3/13 13:2:48",  2,  -64,  1002,  0,  -1,  -1,  -10,  -24,  -37
1736528, 1710334968, "2024/3/13 13:2:48",  3,  -63,  1004,  0,  -1,  -1,  -10,  -26,  -37
1736728, 1710334968, "2024/3/13 13:2:48",  7,  -55,  1006,  0,  0,  -1,  -10,  -25,  -36
1736928, 1710334969, "2024/3/13 13:2:49",  5,  -53,  1004,  0,  0,  -1,  -10,  -25,  -37
1737128, 1710334969, "2024/3/13 13:2:49",  8,  -57,  1001,  0,  -1,  -1,  -10,  -26,  -39
1737328, 1710334969, "2024/3/13 13:2:49",  4,  -54,  1008,  0,  0,  -1,  -12,  -26,  -38
1737528, 1710334969, "2024/3/13 13:2:49",  0,  -55,  1007,  0,  0,  0,  -10,  -25,  -38
1737728, 1710334969, "2024/3/13 13:2:49",  6,  -54,  1006,  0,  0,  -1,  -9,  -25,  -37
1737928, 1710334970, "2024/3/13 13:2:50",  2,  -63,  1003,  0,  0,  -1,  -9,  -25,  -37
1738128, 1710334970, "2024/3/13 13:2:50",  5,  -51,  1005,  0,  0,  -1,  -9,  -26,  -38
1738328, 1710334970, "2024/3/13 13:2:50",  3,  -56,  1001,  0,  0,  0,  -9,  -25,  -39
1738528, 1710334970, "2024/3/13 13:2:50",  5,  -61,  1005,  0,  0,  0,  -7,  -25,  -37
1738728, 1710334970, "2024/3/13 13:2:50",  -1,  -55,  1004,  0,  -1,  -1,  -10,  -25,  -37
1738928, 1710334971, "2024/3/13 13:2:51",  6,  -58,  1006,  0,  0,  -1,  -10,  -26,  -38
1739128, 1710334971, "2024/3/13 13:2:51",  7,  -59,  1002,  0,  0,  0,  -9,  -24,  -38
1739328, 1710334971, "2024/3/13 13:2:51",  6,  -57,  1003,  0,  0,  0,  -9,  -25,  -36
1739528, 1710334971, "2024/3/13 13:2:51",  4,  -56,  1005,  0,  0,  -1,  -11,  -25,  -37
1739728, 1710334971, "2024/3/13 13:2:51",  3,  -59,  1001,  0,  0,  0,  -9,  -25,  -37
1739928, 1710334972, "2024/3/13 13:2:52",  6,  -58,  1004,  0,  0,  -1,  -8,  -27,  -36
1740128, 1710334972, "2024/3/13 13:2:52",  6,  -56,  1004,  0,  0,  -1,  -9,  -26,  -36
1740328, 1710334972, "2024/3/13 13:2:52",  2,  -62,  1008,  0,  0,  0,  -10,  -26,  -37
1740528, 1710334972, "2024/3/13 13:2:52",  3,  -60,  1002,  0,  0,  -1,  -11,  -25,  -37
1740728, 1710334972, "2024/3/13 13:2:52",  10,  -55,  1005,  0,  0,  0,  -8,  -25,  -39
1740928, 1710334973, "2024/3/13 13:2:53",  7,  -58,  1004,  0,  -1,  -1,  -9,  -25,  -36
1741128, 1710334973, "2024/3/13 13:2:53",  4,  -55,  1004,  0,  0,  0,  -11,  -26,  -37
1741328, 1710334973, "2024/3/13 13:2:53",  1,  -55,  1004,  0,  0,  -1,  -10,  -26,  -36
1741528, 1710334973, "2024/3/13 13:2:53",  2,  -56,  1003,  0,  -1,  -1,  -10,  -26,  -36
1741728, 1710334973, "2024/3/13 13:2:53",  1,  -58,  1003,  0,  0,  0,  -9,  -25,  -38
1741928, 1710334974, "2024/3/13 13:2:54",  6,  -57,  1005,  0,  0,  -1,  -10,  -26,  -35
1742128, 1710334974, "2024/3/13 13:2:54",  5,  -54,  1004,  0,  0,  -1,  -10,  -26,  -37
1742328, 1710334974, "2024/3/13 13:2:54",  7,  -59,  1003,  0,  -1,  -1,  -7,  -28,  -38
1742528, 1710334974, "2024/3/13 13:2:54",  7,  -58,  1000,  0,  0,  0,  -9,  -25,  -39
1742728, 1710334974, "2024/3/13 13:2:54",  8,  -54,  1003,  0,  0,  -1,  -11,  -26,  -37
1742928, 1710334975, "2024/3/13 13:2:55",  10,  -59,  1003,  0,  0,  -1,  -10,  -25,  -37
1743128, 1710334975, "2024/3/13 13:2:55",  1,  -55,  1000,  0,  0,  -1,  -10,  -26,  -38
1743328, 1710334975, "2024/3/13 13:2:55",  2,  -57,  1006,  0,  0,  0,  -9,  -25,  -37
1743528, 1710334975, "2024/3/13 13:2:55",  7,  -52,  1000,  0,  0,  -1,  -9,  -27,  -38
1743728, 1710334975, "2024/3/13 13:2:55",  0,  -51,  1004,  0,  -1,  0,  -10,  -26,  -36
1743928, 1710334976, "2024/3/13 13:2:56",  6,  -60,  999,  0,  0,  -1,  -9,  -26,  -37
1744128, 1710334976, "2024/3/13 13:2:56",  3,  -52,  1002,  0,  0,  -1,  -9,  -25,  -37
1744328, 1710334976, "2024/3/13 13:2:56",  6,  -54,  1008,  0,  0,  -1,  -10,  -27,  -37
1744528, 1710334976, "2024/3/13 13:2:56",  4,  -55,  1003,  0,  0,  0,  -10,  -24,  -38
1744728, 1710334976, "2024/3/13 13:2:56",  2,  -62,  1003,  0,  -1,  0,  -11,  -28,  -36
1744928, 1710334977, "2024/3/13 13:2:57",  5,  -57,  1000,  0,  0,  -1,  -8,  -25,  -38
1745128, 1710334977, "2024/3/13 13:2:57",  5,  -55,  1002,  0,  0,  -1,  -8,  -26,  -36
1745328, 1710334977, "2024/3/13 13:2:57",  9,  -60,  1000,  0,  0,  -1,  -9,  -27,  -37
1745528, 1710334977, "2024/3/13 13:2:57",  5,  -58,  1000,  0,  0,  0,  -9,  -25,  -37
1745728, 1710334977, "2024/3/13 13:2:57",  1,  -61,  1007,  0,  0,  -1,  -11,  -27,  -38
1745928, 1710334978, "2024/3/13 13:2:58",  9,  -61,  1005,  0,  0,  -1,  -9,  -26,  -39
1746128, 1710334978, "2024/3/13 13:2:58",  5,  -58,  1003,  0,  0,  -1,  -9,  -26,  -39
1746328, 1710334978, "2024/3/13 13:2:58",  6,  -62,  1004,  0,  0,  -1,  -9,  -25,  -38
1746528, 1710334978, "2024/3/13 13:2:58",  8,  -56,  1004,  0,  0,  -1,  -10,  -26,  -36
1746728, 1710334978, "2024/3/13 13:2:58",  2,  -61,  1006,  0,  0,  -1,  -10,  -25,  -38
1746928, 1710334979, "2024/3/13 13:2:59",  4,  -55,  1004,  0,  0,  -1,  -11,  -25,  -36
1747128, 1710334979, "2024/3/13 13:2:59",  2,  -50,  1001,  0,  0,  0,  -9,  -25,  -36
1747328, 1710334979, "2024/3/13 13:2:59",  4,  -58,  1005,  1,  0,  0,  -11,  -26,  -38
1747528, 1710334979, "2024/3/13 13:2:59",  9,  -54,  1012,  0,  0,  -1,  -10,  -26,  -36
1747728, 1710334979, "2024/3/13 13:2:59",  6,  -60,  1003,  0,  0,  -1,  -9,  -26,  -38
1747928, 1710334980, "2024/3/13 13:3:0",  6,  -58,  1004,  0,  -1,  -1,  -9,  -26,  -38
1748128, 1710334980, "2024/3/13 13:3:0",  6,  -55,  1005,  0,  0,  -1,  -9,  -26,  -36
1748328, 1710334980, "2024/3/13 13:3:0",  2,  -65,  1001,  0,  0,  -1,  -10,  -24,  -38
1748528, 1710334980, "2024/3/13 13:3:0",  4,  -58,  1004,  0,  0,  0,  -9,  -26,  -36
1748728, 1710334980, "2024/3/13 13:3:0",  5,  -61,  1002,  0,  0,  0,  -9,  -26,  -37
1748928, 1710334981, "2024/3/13 13:3:1",  8,  -55,  1007,  0,  0,  -1,  -9,  -27,  -37
1749128, 1710334981, "2024/3/13 13:3:1",  7,  -58,  1002,  0,  -1,  -1,  -11,  -26,  -37
1749328, 1710334981, "2024/3/13 13:3:1",  3,  -60,  1002,  0,  0,  0,  -11,  -26,  -37
1749528, 1710334981, "2024/3/13 13:3:1",  3,  -57,  1004,  0,  0,  -1,  -8,  -25,  -36
1749728, 1710334981, "2024/3/13 13:3:1",  5,  -48,  1005,  0,  0,  -1,  -11,  -26,  -38
1749928, 1710334982, "2024/3/13 13:3:2",  5,  -56,  1002,  0,  0,  -1,  -10,  -26,  -37
1750128, 1710334982, "2024/3/13 13:3:2",  7,  -58,  1003,  0,  0,  0,  -9,  -26,  -37
1750328, 1710334982, "2024/3/13 13:3:2",  3,  -54,  1007,  0,  -1,  -1,  -10,  -24,  -36
1750528, 1710334982, "2024/3/13 13:3:2",  5,  -57,  1006,  0,  0,  -1,  -10,  -26,  -36
1750728, 1710334982, "2024/3/13 13:3:2",  6,  -60,  1001,  0,  0,  0,  -11,  -26,  -37
1750928, 1710334983, "2024/3/13 13:3:3",  5,  -58,  1006,  0,  0,  -1,  -11,  -27,  -37
1751128, 1710334983, "2024/3/13 13:3:3",  1,  -56,  1004,  0,  0,  -1,  -9,  -26,  -38
1751328, 1710334983, "2024/3/13 13:3:3",  3,  -56,  1005,  0,  -1,  0,  -10,  -26,  -39
1751528, 1710334983, "2024/3/13 13:3:3",  7,  -63,  1003,  0,  0,  -1,  -10,  -26,  -36
1751728, 1710334983, "2024/3/13 13:3:3",  6,  -61,  1003,  0,  0,  -1,  -9,  -26,  -37
1751928, 1710334984, "2024/3/13 13:3:4",  6,  -60,  1003,  0,  0,  -1,  -9,  -26,  -36
1752128, 1710334984, "2024/3/13 13:3:4",  1,  -58,  1001,  0,  0,  -1,  -11,  -25,  -38
1752328, 1710334984, "2024/3/13 13:3:4",  7,  -56,  1002,  0,  0,  0,  -8,  -26,  -38
1752528, 1710334984, "2024/3/13 13:3:4",  1,  -58,  1004,  0,  -1,  -1,  -9,  -25,  -38
1752728, 1710334984, "2024/3/13 13:3:4",  3,  -59,  1004,  0,  0,  -1,  -8,  -25,  -37
1752928, 1710334985, "2024/3/13 13:3:5",  4,  -56,  1002,  0,  0,  0,  -8,  -25,  -37
1753128, 1710334985, "2024/3/13 13:3:5",  7,  -58,  1000,  0,  0,  -1,  -9,  -26,  -37
1753328, 1710334985, "2024/3/13 13:3:5",  3,  -55,  1002,  0,  0,  0,  -10,  -26,  -36
1753528, 1710334985, "2024/3/13 13:3:5",  4,  -57,  1004,  0,  -1,  0,  -9,  -27,  -38
1753728, 1710334985, "2024/3/13 13:3:5",  6,  -61,  1005,  0,  0,  -1,  -9,  -25,  -39
1753928, 1710334986, "2024/3/13 13:3:6",  2,  -59,  1004,  0,  0,  0,  -9,  -25,  -37
1754128, 1710334986, "2024/3/13 13:3:6",  5,  -62,  1005,  0,  0,  0,  -9,  -25,  -36
1754328, 1710334986, "2024/3/13 13:3:6",  6,  -56,  1007,  0,  -1,  0,  -9,  -25,  -40
1754528, 1710334986, "2024/3/13 13:3:6",  4,  -60,  1004,  0,  0,  -1,  -9,  -25,  -37
1754728, 1710334986, "2024/3/13 13:3:6",  7,  -58,  1006,  0,  0,  -1,  -9,  -26,  -37
1754928, 1710334987, "2024/3/13 13:3:7",  11,  -56,  1007,  0,  0,  -1,  -10,  -24,  -37
1755128, 1710334987, "2024/3/13 13:3:7",  8,  -57,  1002,  0,  0,  -1,  -11,  -25,  -36
1755328, 1710334987, "2024/3/13 13:3:7",  5,  -54,  1004,  0,  0,  0,  -10,  -27,  -37
1755528, 1710334987, "2024/3/13 13:3:7",  6,  -53,  1004,  0,  0,  0,  -10,  -27,  -38
1755728, 1710334987, "2024/3/13 13:3:7",  7,  -53,  1003,  0,  0,  0,  -10,  -26,  -37
1755928, 1710334988, "2024/3/13 13:3:8",  7,  -54,  1002,  0,  0,  0,  -8,  -25,  -37
1756128, 1710334988, "2024/3/13 13:3:8",  3,  -54,  1003,  0,  0,  0,  -10,  -26,  -38
1756328, 1710334988, "2024/3/13 13:3:8",  3,  -56,  1004,  0,  -1,  -1,  -10,  -27,  -38
1756528, 1710334988, "2024/3/13 13:3:8",  6,  -60,  1003,  0,  0,  -1,  -9,  -26,  -39
1756728, 1710334988, "2024/3/13 13:3:8",  6,  -58,  1003,  0,  0,  -1,  -10,  -25,  -36
1756928, 1710334989, "2024/3/13 13:3:9",  2,  -60,  1003,  0,  0,  0,  -9,  -26,  -35
1757128, 1710334989, "2024/3/13 13:3:9",  7,  -60,  1006,  0,  0,  -1,  -9,  -26,  -36
1757328, 1710334989, "2024/3/13 13:3:9",  3,  -62,  1002,  0,  0,  0,  -9,  -26,  -37
1757528, 1710334989, "2024/3/13 13:3:9",  4,  -60,  1002,  0,  0,  -1,  -9,  -25,  -37
1757728, 1710334989, "2024/3/13 13:3:9",  4,  -57,  1004,  0,  0,  -1,  -10,  -26,  -37
1757928, 1710334990, "2024/3/13 13:3:10",  8,  -55,  1001,  0,  0,  -1,  -10,  -25,  -37
1758128, 1710334990, "2024/3/13 13:3:10",  4,  -59,  1003,  0,  0,  0,  -10,  -25,  -37
1758328, 1710334990, "2024/3/13 13:3:10",  8,  -56,  1004,  0,  0,  -1,  -9,  -25,  -36
1758528, 1710334990, "2024/3/13 13:3:10",  6,  -58,  1003,  0,  0,  -1,  -10,  -26,  -37
1758728, 1710334990, "2024/3/13 13:3:10",  4,  -61,  1000,  0,  0,  -1,  -9,  -26,  -36
1758928, 1710334991, "2024/3/13 13:3:11",  3,  -62,  1003,  0,  0,  -1,  -10,  -24,  -36
1759128, 1710334991, "2024/3/13 13:3:11",  5,  -52,  1004,  0,  0,  -1,  -9,  -25,  -37
1759328, 1710334991, "2024/3/13 13:3:11",  7,  -55,  1005,  0,  0,  -1,  -10,  -26,  -36
1759528, 1710334991, "2024/3/13 13:3:11",  8,  -57,  1000,  0,  -1,  -1,  -11,  -25,  -39
1759728, 1710334991, "2024/3/13 13:3:11",  1,  -58,  1003,  0,  0,  0,  -8,  -26,  -37
1759928, 1710334992, "2024/3/13 13:3:12",  6,  -54,  1004,  0,  -1,  -1,  -9,  -27,  -35
1760128, 1710334992, "2024/3/13 13:3:12",  0,  -55,  1002,  0,  0,  -1,  -10,  -25,  -36
1760328, 1710334992, "2024/3/13 13:3:12",  4,  -55,  1004,  0,  0,  -1,  -10,  -25,  -37
1760528, 1710334992, "2024/3/13 13:3:12",  0,  -53,  999,  0,  -1,  0,  -9,  -28,  -38
1760728, 1710334992, "2024/3/13 13:3:12",  5,  -66,  1007,  0,  0,  0,  -11,  -26,  -37
1760928, 1710334993, "2024/3/13 13:3:13",  8,  -55,  1005,  0,  0,  0,  -10,  -26,  -36
1761128, 1710334993, "2024/3/13 13:3:13",  6,  -56,  1004,  0,  0,  0,  -8,  -25,  -37
1761328, 1710334993, "2024/3/13 13:3:13",  8,  -59,  999,  0,  0,  -1,  -9,  -24,  -38
1761528, 1710334993, "2024/3/13 13:3:13",  -1,  -57,  1004,  0,  0,  -1,  -9,  -26,  -37
1761728, 1710334993, "2024/3/13 13:3:13",  7,  -55,  1003,  0,  0,  0,  -10,  -28,  -38
1761928, 1710334994, "2024/3/13 13:3:14",  6,  -58,  1006,  0,  0,  0,  -9,  -24,  -39
1762128, 1710334994, "2024/3/13 13:3:14",  1,  -53,  1003,  0,  0,  -1,  -10,  -25,  -38
1762328, 1710334994, "2024/3/13 13:3:14",  3,  -55,  1005,  0,  0,  -1,  -9,  -27,  -37
1762528, 1710334994, "2024/3/13 13:3:14",  6,  -60,  1002,  0,  0,  -1,  -9,  -26,  -37
1762728, 1710334994, "2024/3/13 13:3:14",  6,  -57,  1005,  0,  -1,  0,  -9,  -26,  -38
1762928, 1710334995, "2024/3/13 13:3:15",  3,  -56,  1004,  0,  0,  0,  -11,  -26,  -37
1763128, 1710334995, "2024/3/13 13:3:15",  6,  -59,  1002,  0,  0,  -1,  -9,  -26,  -38
1763328, 1710334995, "2024/3/13 13:3:15",  2,  -67,  1004,  0,  0,  -1,  -10,  -27,  -37
1763528, 1710334995, "2024/3/13 13:3:15",  3,  -57,  1000,  0,  0,  -1,  -9,  -25,  -37
1763728, 1710334995, "2024/3/13 13:3:15",  9,  -54,  1003,  0,  0,  0,  -8,  -27,  -37
1763928, 1710334996, "2024/3/13 13:3:16",  2,  -58,  1000,  0,  -1,  -1,  -8,  -25,  -38
1764128, 1710334996, "2024/3/13 13:3:16",  -1,  -57,  1005,  0,  0,  -1,  -9,  -25,  -38
1764328, 1710334996, "2024/3/13 13:3:16",  4,  -57,  1004,  0,  0,  0,  -8,  -25,  -36
1764528, 1710334996, "2024/3/13 13:3:16",  3,  -59,  1002,  0,  -1,  0,  -11,  -26,  -37
1764728, 1710334996, "2024/3/13 13:3:16",  5,  -63,  1000,  0,  0,  0,  -9,  -26,  -36
1764928, 1710334997, "2024/3/13 13:3:17",  4,  -54,  1002,  0,  0,  0,  -11,  -25,  -36
1765128, 1710334997, "2024/3/13 13:3:17",  5,  -60,  1001,  0,  0,  0,  -8,  -26,  -36
1765328, 1710334997, "2024/3/13 13:3:17",  7,  -59,  1002,  1,  0,  -1,  -11,  -27,  -37
1765528, 1710334997, "2024/3/13 13:3:17",  5,  -57,  1005,  0,  0,  0,  -10,  -26,  -37
1765728, 1710334997, "2024/3/13 13:3:17",  4,  -62,  1003,  0,  0,  -1,  -9,  -27,  -38
1765928, 1710334998, "2024/3/13 13:3:18",  5,  -58,  1005,  0,  0,  0,  -9,  -26,  -38
1766128, 1710334998, "2024/3/13 13:3:18",  3,  -58,  1007,  0,  0,  -1,  -9,  -27,  -36
1766328, 1710334998, "2024/3/13 13:3:18",  3,  -53,  1003,  0,  0,  0,  -10,  -26,  -37
1766528, 1710334998, "2024/3/13 13:3:18",  3,  -61,  1000,  0,  0,  -1,  -9,  -27,  -36
1766728, 1710334998, "2024/3/13 13:3:18",  7,  -52,  1001,  0,  -1,  -1,  -11,  -26,  -37
1766928, 1710334999, "2024/3/13 13:3:19",  6,  -60,  1007,  0,  -1,  -1,  -11,  -25,  -37
1767128, 1710334999, "2024/3/13 13:3:19",  6,  -58,  1006,  0,  0,  -1,  -9,  -24,  -37
1767328, 1710334999, "2024/3/13 13:3:19",  2,  -57,  1003,  0,  0,  -1,  -11,  -26,  -37
1767528, 1710334999, "2024/3/13 13:3:19",  4,  -60,  1002,  0,  0,  0,  -9,  -26,  -38
1767728, 1710334999, "2024/3/13 13:3:19",  0,  -56,  1002,  0,  0,  -1,  -10,  -27,  -37
1767928, 1710335000, "2024/3/13 13:3:20",  7,  -57,  1002,  0,  0,  -1,  -9,  -26,  -37
1768128, 1710335000, "2024/3/13 13:3:20",  4,  -58,  1004,  0,  0,  -1,  -10,  -26,  -37
1768328, 1710335000, "2024/3/13 13:3:20",  3,  -52,  1002,  0,  0,  0,  -10,  -26,  -38
1768528, 1710335000, "2024/3/13 13:3:20",  2,  -53,  1002,  0,  0,  -1,  -8,  -26,  -38
1768728, 1710335000, "2024/3/13 13:3:20",  5,  -53,  1006,  0,  0,  -1,  -9,  -26,  -37
1768928, 1710335001, "2024/3/13 13:3:21",  3,  -63,  1007,  0,  0,  0,  -10,  -25,  -38
1769128, 1710335001, "2024/3/13 13:3:21",  1,  -58,  1000,  0,  0,  -1,  -8,  -25,  -39
1769328, 1710335001, "2024/3/13 13:3:21",  6,  -51,  1005,  0,  0,  0,  -11,  -26,  -37
1769528, 1710335001, "2024/3/13 13:3:21",  2,  -55,  1007,  0,  0,  -1,  -9,  -27,  -37
1769728, 1710335001, "2024/3/13 13:3:21",  3,  -57,  1004,  0,  0,  0,  -8,  -26,  -38
1769928, 1710335002, "2024/3/13 13:3:22",  5,  -56,  1005,  0,  0,  0,  -9,  -25,  -36
1770128, 1710335002, "2024/3/13 13:3:22",  7,  -61,  1003,  0,  0,  0,  -9,  -25,  -37
1770328, 1710335002, "2024/3/13 13:3:22",  6,  -56,  1004,  0,  0,  -1,  -10,  -26,  -36
1770528, 1710335002, "2024/3/13 13:3:22",  7,  -51,  1004,  0,  -1,  0,  -11,  -26,  -37
1770728, 1710335002, "2024/3/13 13:3:22",  7,  -53,  1001,  0,  0,  -1,  -10,  -25,  -36
1770928, 1710335003, "2024/3/13 13:3:23",  4,  -56,  1006,  0,  0,  -1,  -9,  -26,  -38
1771128, 1710335003, "2024/3/13 13:3:23",  8,  -59,  1006,  0,  0,  0,  -10,  -26,  -38
1771328, 1710335003, "2024/3/13 13:3:23",  4,  -53,  1003,  0,  0,  0,  -9,  -27,  -37
1771528, 1710335003, "2024/3/13 13:3:23",  1,  -57,  1000,  0,  0,  0,  -8,  -25,  -38
1771728, 1710335003, "2024/3/13 13:3:23",  1,  -59,  1005,  0,  -1,  0,  -8,  -27,  -37
1771928, 1710335004, "2024/3/13 13:3:24",  0,  -61,  1004,  0,  0,  -1,  -8,  -26,  -37
1772128, 1710335004, "2024/3/13 13:3:24",  6,  -59,  1002,  0,  0,  -1,  -10,  -25,  -37
1772328, 1710335004, "2024/3/13 13:3:24",  -1,  -61,  1001,  0,  0,  -1,  -10,  -24,  -38
1772528, 1710335004, "2024/3/13 13:3:24",  4,  -60,  1001,  0,  0,  -1,  -10,  -26,  -38
1772728, 1710335004, "2024/3/13 13:3:24",  4,  -54,  1001,  0,  0,  0,  -9,  -27,  -38
1772928, 1710335005, "2024/3/13 13:3:25",  5,  -59,  1004,  0,  0,  -1,  -11,  -27,  -37
1773128, 1710335005, "2024/3/13 13:3:25",  7,  -49,  1003,  0,  -1,  -1,  -8,  -25,  -37
1773328, 1710335005, "2024/3/13 13:3:25",  5,  -57,  1002,  0,  0,  -1,  -10,  -27,  -38
1773528, 1710335005, "2024/3/13 13:3:25",  9,  -56,  1002,  0,  0,  -1,  -10,  -26,  -36
1773728, 1710335005, "2024/3/13 13:3:25",  5,  -60,  1004,  0,  0,  -1,  -8,  -27,  -38
1773928, 1710335006, "2024/3/13 13:3:26",  4,  -61,  1001,  0,  0,  -1,  -9,  -26,  -38
1774128, 1710335006, "2024/3/13 13:3:26",  5,  -57,  1003,  0,  0,  0,  -9,  -26,  -37
1774328, 1710335006, "2024/3/13 13:3:26",  3,  -58,  998,  0,  0,  0,  -9,  -26,  -38
1774528, 1710335006, "2024/3/13 13:3:26",  5,  -54,  1004,  0,  -1,  -1,  -9,  -26,  -37
1774728, 1710335006, "2024/3/13 13:3:26",  5,  -59,  1004,  0,  0,  -1,  -9,  -26,  -38
1774928, 1710335007, "2024/3/13 13:3:27",  0,  -62,  1003,  0,  0,  -1,  -10,  -27,  -38
1775128, 1710335007, "2024/3/13 13:3:27",  2,  -59,  1000,  0,  0,  0,  -8,  -24,  -37
1775328, 1710335007, "2024/3/13 13:3:27",  5,  -62,  1003,  0,  0,  0,  -8,  -26,  -38
1775528, 1710335007, "2024/3/13 13:3:27",  9,  -61,  1005,  0,  -1,  -1,  -9,  -26,  -36
1775728, 1710335007, "2024/3/13 13:3:27",  2,  -59,  1005,  0,  0,  -1,  -8,  -26,  -37
1775928, 1710335008, "2024/3/13 13:3:28",  6,  -52,  1002,  0,  0,  -1,  -10,  -26,  -37
1776128, 1710335008, "2024/3/13 13:3:28",  7,  -60,  1003,  0,  0,  -1,  -10,  -25,  -39
1776328, 1710335008, "2024/3/13 13:3:28",  7,  -59,  1002,  0,  0,  -1,  -10,  -24,  -37
1776528, 1710335008, "2024/3/13 13:3:28",  1,  -60,  997,  0,  0,  0,  -10,  -23,  -37
1776728, 1710335008, "2024/3/13 13:3:28",  5,  -59,  1004,  0,  0,  0,  -10,  -26,  -37
1776928, 1710335009, "2024/3/13 13:3:29",  4,  -52,  1002,  0,  0,  -1,  -10,  -25,  -37
1777128, 1710335009, "2024/3/13 13:3:29",  7,  -57,  1004,  0,  -1,  -1,  -7,  -26,  -38
1777328, 1710335009, "2024/3/13 13:3:29",  4,  -56,  1002,  0,  0,  -1,  -10,  -27,  -37
1777528, 1710335009, "2024/3/13 13:3:29",  9,  -65,  1006,  0,  -1,  -1,  -9,  -25,  -36
1777728, 1710335009, "2024/3/13 13:3:29",  7,  -64,  1002,  0,  0,  0,  -10,  -25,  -37
1777928, 1710335010, "2024/3/13 13:3:30",  2,  -58,  1003,  0,  0,  -1,  -9,  -25,  -39
1778128, 1710335010, "2024/3/13 13:3:30",  4,  -58,  1003,  0,  0,  0,  -9,  -27,  -37
1778328, 1710335010, "2024/3/13 13:3:30",  5,  -62,  1002,  0,  0,  -1,  -9,  -27,  -37
1778528, 1710335010, "2024/3/13 13:3:30",  6,  -58,  1003,  0,  0,  -1,  -11,  -25,  -39
1778728, 1710335010, "2024/3/13 13:3:30",  3,  -57,  1003,  0,  -1,  -1,  -10,  -27,  -37
1778928, 1710335011, "2024/3/13 13:3:31",  6,  -54,  1002,  0,  0,  -1,  -9,  -27,  -38
1779128, 1710335011, "2024/3/13 13:3:31",  8,  -56,  1006,  0,  0,  -1,  -11,  -25,  -37
1779328, 1710335011, "2024/3/13 13:3:31",  5,  -63,  1003,  0,  0,  0,  -10,  -25,  -37
1779528, 1710335011, "2024/3/13 13:3:31",  3,  -64,  1005,  0,  0,  -1,  -8,  -27,  -38
1779728, 1710335011, "2024/3/13 13:3:31",  2,  -54,  1000,  0,  0,  0,  -10,  -26,  -37
1779928, 1710335012, "2024/3/13 13:3:32",  5,  -60,  1001,  0,  0,  -1,  -9,  -26,  -37
1780128, 1710335012, "2024/3/13 13:3:32",  3,  -57,  1003,  0,  0,  0,  -9,  -26,  -37
1780328, 1710335012, "2024/3/13 13:3:32",  2,  -56,  1001,  0,  0,  -1,  -9,  -25,  -36
1780528, 1710335012, "2024/3/13 13:3:32",  4,  -57,  1008,  0,  0,  -1,  -11,  -23,  -38
1780728, 1710335012, "2024/3/13 13:3:32",  9,  -61,  1006,  0,  0,  0,  -9,  -26,  -37
1780928, 1710335013, "2024/3/13 13:3:33",  9,  -59,  1006,  0,  0,  0,  -10,  -27,  -36
1781128, 1710335013, "2024/3/13 13:3:33",  2,  -60,  1002,  0,  0,  -1,  -9,  -25,  -39
1781328, 1710335013, "2024/3/13 13:3:33",  0,  -61,  1005,  0,  -1,  -1,  -10,  -25,  -38
1781528, 1710335013, "2024/3/13 13:3:33",  3,  -64,  1003,  0,  -1,  -1,  -10,  -26,  -38
1781728, 1710335013, "2024/3/13 13:3:33",  6,  -57,  1003,  0,  0,  0,  -9,  -25,  -36
1781928, 1710335014, "2024/3/13 13:3:34",  -4,  -62,  991,  0,  0,  -1,  -9,  -26,  -39
1782128, 1710335014, "2024/3/13 13:3:34",  6,  -61,  1003,  0,  0,  0,  -8,  -25,  -36
1782328, 1710335014, "2024/3/13 13:3:34",  4,  -64,  1003,  0,  0,  0,  -11,  -25,  -37
1782528, 1710335014, "2024/3/13 13:3:34",  1,  -59,  1001,  0,  0,  -1,  -9,  -25,  -38
1782728, 1710335014, "2024/3/13 13:3:34",  4,  -62,  1005,  0,  0,  -1,  -8,  -26,  -38
1782928, 1710335015, "2024/3/13 13:3:35",  1,  -56,  1004,  0,  0,  -1,  -9,  -25,  -36
1783128, 1710335015, "2024/3/13 13:3:35",  0,  -59,  1000,  0,  0,  -1,  -8,  -26,  -37
1783328, 1710335015, "2024/3/13 13:3:35",  4,  -57,  1001,  0,  0,  -1,  -10,  -25,  -38
1783528, 1710335015, "2024/3/13 13:3:35",  2,  -54,  1002,  0,  0,  0,  -10,  -25,  -37
1783728, 1710335015, "2024/3/13 13:3:35",  0,  -60,  1006,  0,  0,  -1,  -9,  -24,  -38
1783928, 1710335016, "2024/3/13 13:3:36",  2,  -59,  1002,  0,  0,  -1,  -9,  -25,  -37
1784128, 1710335016, "2024/3/13 13:3:36",  11,  -61,  1006,  0,  0,  -1,  -10,  -25,  -36
1784328, 1710335016, "2024/3/13 13:3:36",  3,  -62,  1005,  0,  0,  -1,  -9,  -25,  -36
1784528, 1710335016, "2024/3/13 13:3:36",  4,  -62,  1002,  0,  0,  -1,  -9,  -25,  -37
1784728, 1710335016, "2024/3/13 13:3:36",  7,  -53,  1001,  0,  0,  0,  -8,  -27,  -36
1784928, 1710335017, "2024/3/13 13:3:37",  3,  -58,  1000,  0,  0,  -1,  -9,  -26,  -37
1785128, 1710335017, "2024/3/13 13:3:37",  4,  -56,  1004,  0,  0,  -1,  -10,  -26,  -38
1785328, 1710335017, "2024/3/13 13:3:37",  5,  -58,  1004,  0,  0,  0,  -10,  -27,  -36
1785528, 1710335017, "2024/3/13 13:3:37",  5,  -57,  1004,  0,  0,  -1,  -9,  -26,  -37
1785728, 1710335017, "2024/3/13 13:3:37",  6,  -62,  1006,  0,  0,  0,  -8,  -24,  -37
1785928, 1710335018, "2024/3/13 13:3:38",  0,  -57,  1005,  0,  0,  0,  -10,  -25,  -36
1786128, 1710335018, "2024/3/13 13:3:38",  5,  -57,  1005,  0,  0,  -1,  -9,  -28,  -39
1786328, 1710335018, "2024/3/13 13:3:38",  3,  -60,  1003,  0,  -1,  -1,  -9,  -25,  -38
1786528, 1710335018, "2024/3/13 13:3:38",  6,  -63,  1004,  0,  0,  -1,  -10,  -27,  -36
1786728, 1710335018, "2024/3/13 13:3:38",  0,  -58,  1003,  0,  -1,  -1,  -9,  -25,  -37
1786928, 1710335019, "2024/3/13 13:3:39",  4,  -55,  1008,  0,  0,  -1,  -10,  -25,  -38
1787128, 1710335019, "2024/3/13 13:3:39",  4,  -60,  1002,  0,  0,  -1,  -10,  -26,  -38
1787328, 1710335019, "2024/3/13 13:3:39",  6,  -57,  1002,  0,  0,  0,  -9,  -24,  -36
1787528, 1710335019, "2024/3/13 13:3:39",  0,  -58,  1004,  0,  -1,  0,  -10,  -25,  -38
1787728, 1710335019, "2024/3/13 13:3:39",  1,  -58,  1003,  0,  0,  0,  -11,  -25,  -37
1787928, 1710335020, "2024/3/13 13:3:40",  6,  -57,  1002,  0,  0,  -1,  -9,  -27,  -38
1788128, 1710335020, "2024/3/13 13:3:40",  2,  -57,  1004,  0,  0,  -1,  -10,  -26,  -36
1788328, 1710335020, "2024/3/13 13:3:40",  6,  -55,  1006,  0,  0,  -1,  -11,  -27,  -37
1788528, 1710335020, "2024/3/13 13:3:40",  3,  -59,  1000,  0,  0,  0,  -8,  -23,  -36
1788728, 1710335020, "2024/3/13 13:3:40",  2,  -53,  1002,  0,  0,  0,  -11,  -26,  -37
1788928, 1710335021, "2024/3/13 13:3:41",  2,  -58,  1003,  0,  0,  0,  -8,  -25,  -38
1789128, 1710335021, "2024/3/13 13:3:41",  4,  -54,  1006,  0,  0,  -1,  -10,  -27,  -36
1789328, 1710335021, "2024/3/13 13:3:41",  6,  -58,  1004,  0,  0,  -1,  -9,  -26,  -37
1789528, 1710335021, "2024/3/13 13:3:41",  6,  -59,  1005,  0,  0,  -1,  -10,  -25,  -37
1789728, 1710335021, "2024/3/13 13:3:41",  6,  -55,  1006,  0,  0,  -1,  -9,  -27,  -37
1789928, 1710335022, "2024/3/13 13:3:42",  5,  -54,  1001,  0,  0,  0,  -9,  -25,  -37
1790128, 1710335022, "2024/3/13 13:3:42",  4,  -56,  1008,  0,  0,  0,  -10,  -25,  -37
1790328, 1710335022, "2024/3/13 13:3:42",  5,  -54,  1007,  0,  0,  0,  -8,  -24,  -38
1790528, 1710335022, "2024/3/13 13:3:42",  4,  -54,  1000,  0,  -1,  -1,  -9,  -26,  -36
1790728, 1710335022, "2024/3/13 13:3:42",  10,  -53,  1001,  0,  0,  -1,  -9,  -26,  -38
1790928, 1710335023, "2024/3/13 13:3:43",  3,  -58,  1008,  0,  0,  -1,  -10,  -26,  -37
1791128, 1710335023, "2024/3/13 13:3:43",  2,  -58,  1002,  0,  0,  -1,  -9,  -28,  -37
1791328, 1710335023, "2024/3/13 13:3:43",  4,  -61,  1001,  0,  0,  0,  -9,  -24,  -37
1791528, 1710335023, "2024/3/13 13:3:43",  5,  -60,  1004,  0,  0,  -1,  -9,  -26,  -37
1791728, 1710335023, "2024/3/13 13:3:43",  8,  -55,  1004,  0,  -1,  -1,  -10,  -25,  -36
1791928, 1710335024, "2024/3/13 13:3:44",  2,  -56,  1005,  0,  0,  -1,  -9,  -26,  -37
1792128, 1710335024, "2024/3/13 13:3:44",  1,  -58,  1004,  0,  0,  -1,  -9,  -24,  -36
1792328, 1710335024, "2024/3/13 13:3:44",  3,  -60,  1001,  0,  0,  -1,  -9,  -25,  -36
1792528, 1710335024, "2024/3/13 13:3:44",  2,  -59,  1006,  0,  0,  -1,  -10,  -27,  -37
1792728, 1710335024, "2024/3/13 13:3:44",  4,  -54,  1001,  0,  0,  0,  -10,  -25,  -38
1792928, 1710335025, "2024/3/13 13:3:45",  4,  -55,  1004,  0,  0,  -1,  -9,  -26,  -36
1793128, 1710335025, "2024/3/13 13:3:45",  7,  -58,  1000,  0,  0,  -1,  -10,  -26,  -37
1793328, 1710335025, "2024/3/13 13:3:45",  8,  -61,  1006,  0,  0,  -1,  -8,  -27,  -37
1793528, 1710335025, "2024/3/13 13:3:45",  3,  -57,  1001,  0,  0,  -1,  -8,  -25,  -35
1793728, 1710335025, "2024/3/13 13:3:45",  3,  -61,  1003,  0,  0,  0,  -10,  -27,  -36
1793928, 1710335026, "2024/3/13 13:3:46",  5,  -61,  1000,  0,  0,  0,  -9,  -25,  -37
1794128, 1710335026, "2024/3/13 13:3:46",  7,  -60,  1000,  0,  0,  0,  -8,  -27,  -37
1794328, 1710335026, "2024/3/13 13:3:46",  0,  -58,  1007,  0,  0,  -1,  -9,  -24,  -37
1794528, 1710335026, "2024/3/13 13:3:46",  0,  -58,  1004,  0,  -1,  -1,  -9,  -26,  -36
1794728, 1710335026, "2024/3/13 13:3:46",  2,  -61,  1006,  0,  0,  -1,  -9,  -25,  -37
1794928, 1710335027, "2024/3/13 13:3:47",  0,  -56,  1004,  0,  0,  -1,  -11,  -27,  -38
1795128, 1710335027, "2024/3/13 13:3:47",  0,  -59,  1004,  0,  0,  0,  -7,  -26,  -37
1795328, 1710335027, "2024/3/13 13:3:47",  0,  -59,  1002,  0,  0,  0,  -9,  -26,  -37
1795528, 1710335027, "2024/3/13 13:3:47",  4,  -53,  1003,  0,  0,  0,  -10,  -25,  -38
1795728, 1710335027, "2024/3/13 13:3:47",  4,  -53,  1006,  0,  0,  -1,  -10,  -26,  -37
1795928, 1710335028, "2024/3/13 13:3:48",  5,  -59,  1001,  0,  0,  0,  -9,  -24,  -37
1796128, 1710335028, "2024/3/13 13:3:48",  4,  -55,  1002,  0,  0,  0,  -9,  -25,  -38
1796328, 1710335028, "2024/3/13 13:3:48",  6,  -58,  1002,  0,  0,  0,  -9,  -25,  -36
1796528, 1710335028, "2024/3/13 13:3:48",  11,  -62,  1005,  0,  0,  -1,  -11,  -26,  -37
1796728, 1710335028, "2024/3/13 13:3:48",  5,  -58,  1003,  0,  0,  -1,  -9,  -25,  -37
1796928, 1710335029, "2024/3/13 13:3:49",  5,  -62,  996,  0,  0,  -1,  -9,  -26,  -37
1797128, 1710335029, "2024/3/13 13:3:49",  5,  -59,  1005,  0,  0,  0,  -9,  -26,  -36
1797328, 1710335029, "2024/3/13 13:3:49",  6,  -61,  1005,  0,  0,  -1,  -8,  -25,  -37
1797528, 1710335029, "2024/3/13 13:3:49",  8,  -57,  1002,  0,  0,  0,  -10,  -26,  -38
1797728, 1710335029, "2024/3/13 13:3:49",  1,  -59,  1007,  0,  0,  -1,  -8,  -25,  -37
1797928, 1710335030, "2024/3/13 13:3:50",  9,  -54,  1008,  0,  0,  -1,  -9,  -26,  -39
1798128, 1710335030, "2024/3/13 13:3:50",  5,  -54,  1005,  0,  0,  0,  -9,  -25,  -36
1798328, 1710335030, "2024/3/13 13:3:50",  6,  -58,  1006,  0,  0,  -1,  -9,  -25,  -39
1798528, 1710335030, "2024/3/13 13:3:50",  8,  -60,  1004,  0,  0,  0,  -11,  -25,  -36
1798728, 1710335030, "2024/3/13 13:3:50",  10,  -60,  1002,  0,  0,  -1,  -10,  -27,  -38
1798928, 1710335031, "2024/3/13 13:3:51",  6,  -60,  1000,  0,  0,  -1,  -10,  -26,  -37
1799128, 1710335031, "2024/3/13 13:3:51",  6,  -53,  1005,  0,  0,  0,  -9,  -25,  -38
1799328, 1710335031, "2024/3/13 13:3:51",  8,  -57,  1005,  0,  0,  0,  -8,  -24,  -37
1799528, 1710335031, "2024/3/13 13:3:51",  9,  -59,  1009,  0,  0,  -1,  -9,  -25,  -39
1799728, 1710335031, "2024/3/13 13:3:51",  0,  -57,  1001,  0,  0,  -1,  -9,  -26,  -38
1799928, 1710335032, "2024/3/13 13:3:52",  9,  -55,  1005,  0,  -1,  -1,  -9,  -26,  -36
1800128, 1710335032, "2024/3/13 13:3:52",  4,  -57,  999,  0,  0,  -1,  -10,  -25,  -38
1800328, 1710335032, "2024/3/13 13:3:52",  8,  -56,  1001,  0,  0,  -1,  -9,  -26,  -37
1800528, 1710335032, "2024/3/13 13:3:52",  7,  -62,  1004,  0,  0,  -1,  -8,  -27,  -36
1800728, 1710335032, "2024/3/13 13:3:52",  3,  -48,  1000,  0,  0,  -1,  -9,  -26,  -37
1800928, 1710335033, "2024/3/13 13:3:53",  6,  -59,  1000,  0,  0,  -1,  -9,  -25,  -37
1801128, 1710335033, "2024/3/13 13:3:53",  10,  -57,  1003,  0,  0,  -1,  -11,  -24,  -39
1801328, 1710335033, "2024/3/13 13:3:53",  8,  -54,  1003,  0,  0,  -1,  -9,  -24,  -38
1801528, 1710335033, "2024/3/13 13:3:53",  8,  -56,  1004,  0,  0,  -1,  -9,  -26,  -36
1801728, 1710335033, "2024/3/13 13:3:53",  6,  -55,  1006,  0,  0,  -1,  -8,  -25,  -37
1801928, 1710335034, "2024/3/13 13:3:54",  0,  -54,  1002,  0,  -1,  -1,  -8,  -26,  -37
1802128, 1710335034, "2024/3/13 13:3:54",  6,  -57,  1005,  0,  0,  -1,  -10,  -26,  -37
1802328, 1710335034, "2024/3/13 13:3:54",  8,  -61,  1008,  0,  0,  0,  -10,  -26,  -37
1802528, 1710335034, "2024/3/13 13:3:54",  6,  -62,  1003,  0,  0,  0,  -10,  -25,  -38
1802728, 1710335034, "2024/3/13 13:3:54",  3,  -62,  1003,  0,  0,  -1,  -9,  -24,  -37
1802928, 1710335035, "2024/3/13 13:3:55",  4,  -55,  1000,  0,  0,  -1,  -9,  -26,  -38
1803128, 1710335035, "2024/3/13 13:3:55",  5,  -53,  1003,  0,  0,  -1,  -9,  -24,  -37
1803328, 1710335035, "2024/3/13 13:3:55",  8,  -56,  1002,  0,  0,  -1,  -11,  -26,  -38
1803528, 1710335035, "2024/3/13 13:3:55",  3,  -54,  1003,  0,  0,  -1,  -9,  -24,  -37
1803728, 1710335035, "2024/3/13 13:3:55",  6,  -58,  1002,  0,  0,  0,  -10,  -25,  -37
1803928, 1710335036, "2024/3/13 13:3:56",  4,  -59,  1003,  0,  -1,  0,  -8,  -27,  -37
1804128, 1710335036, "2024/3/13 13:3:56",  7,  -51,  1003,  0,  0,  -1,  -9,  -26,  -38
1804328, 1710335036, "2024/3/13 13:3:56",  4,  -58,  1004,  0,  0,  -1,  -9,  -26,  -37
1804528, 1710335036, "2024/3/13 13:3:56",  7,  -60,  1004,  0,  0,  0,  -10,  -25,  -37
1804728, 1710335036, "2024/3/13 13:3:56",  7,  -59,  999,  0,  0,  -1,  -7,  -26,  -39
1804928, 1710335037, "2024/3/13 13:3:57",  6,  -54,  1006,  0,  -1,  -1,  -10,  -27,  -36
1805128, 1710335037, "2024/3/13 13:3:57",  8,  -56,  1005,  0,  0,  -1,  -11,  -24,  -37
1805328, 1710335037, "2024/3/13 13:3:57",  7,  -55,  1003,  0,  0,  -1,  -9,  -26,  -37
1805528, 1710335037, "2024/3/13 13:3:57",  6,  -58,  1002,  0,  0,  -1,  -9,  -25,  -37
1805728, 1710335037, "2024/3/13 13:3:57",  0,  -58,  1004,  0,  0,  -1,  -9,  -26,  -36
1805928, 1710335038, "2024/3/13 13:3:58",  4,  -64,  1000,  0,  0,  0,  -10,  -27,  -37
1806128, 1710335038, "2024/3/13 13:3:58",  3,  -64,  1002,  0,  0,  -1,  -9,  -25,  -38
1806328, 1710335038, "2024/3/13 13:3:58",  5,  -56,  1005,  0,  0,  -1,  -10,  -25,  -39
1806528, 1710335038, "2024/3/13 13:3:58",  4,  -59,  1009,  0,  0,  0,  -9,  -26,  -38
1806728, 1710335038, "2024/3/13 13:3:58",  0,  -61,  1004,  0,  0,  -1,  -10,  -26,  -37
1806928, 1710335039, "2024/3/13 13:3:59",  6,  -54,  1006,  0,  0,  0,  -9,  -26,  -36
1807128, 1710335039, "2024/3/13 13:3:59",  2,  -60,  1004,  0,  0,  0,  -9,  -24,  -37
1807328, 1710335039, "2024/3/13 13:3:59",  2,  -60,  1003,  0,  0,  -1,  -9,  -25,  -36
1807528, 1710335039, "2024/3/13 13:3:59",  4,  -61,  1002,  0,  0,  -1,  -9,  -25,  -37
1807728, 1710335039, "2024/3/13 13:3:59",  4,  -61,  1001,  0,  0,  -1,  -9,  -26,  -38
1807928, 1710335040, "2024/3/13 13:4:0",  5,  -56,  1008,  0,  -1,  -1,  -10,  -26,  -37
1808128, 1710335040, "2024/3/13 13:4:0",  5,  -57,  1001,  0,  0,  -1,  -9,  -25,  -38
1808328, 1710335040, "2024/3/13 13:4:0",  8,  -60,  1007,  0,  0,  -1,  -10,  -27,  -38
1808528, 1710335040, "2024/3/13 13:4:0",  2,  -56,  1002,  0,  0,  -1,  -10,  -25,  -37
1808728, 1710335040, "2024/3/13 13:4:0",  5,  -54,  1002,  0,  -1,  -1,  -9,  -25,  -37
1808928, 1710335041, "2024/3/13 13:4:1",  7,  -54,  1004,  0,  -1,  0,  -10,  -26,  -37
1809128, 1710335041, "2024/3/13 13:4:1",  5,  -63,  1003,  0,  -1,  -1,  -9,  -25,  -36
1809328, 1710335041, "2024/3/13 13:4:1",  7,  -57,  1004,  0,  0,  0,  -8,  -24,  -37
1809528, 1710335041, "2024/3/13 13:4:1",  7,  -57,  1003,  0,  0,  0,  -10,  -27,  -37
1809728, 1710335041, "2024/3/13 13:4:1",  4,  -55,  1006,  0,  0,  -1,  -10,  -25,  -38
1809928, 1710335042, "2024/3/13 13:4:2",  5,  -61,  1004,  0,  0,  -1,  -9,  -26,  -38
1810128, 1710335042, "2024/3/13 13:4:2",  9,  -58,  1003,  0,  0,  -1,  -9,  -24,  -36
1810328, 1710335042, "2024/3/13 13:4:2",  1,  -56,  1006,  0,  0,  -1,  -9,  -24,  -37
1810528, 1710335042, "2024/3/13 13:4:2",  4,  -57,  1007,  0,  0,  0,  -10,  -27,  -38
1810728, 1710335042, "2024/3/13 13:4:2",  1,  -60,  1005,  0,  -1,  -1,  -9,  -25,  -38
1810928, 1710335043, "2024/3/13 13:4:3",  5,  -57,  1002,  0,  0,  -1,  -10,  -27,  -36
1811128, 1710335043, "2024/3/13 13:4:3",  6,  -57,  1000,  0,  0,  -1,  -10,  -26,  -38
1811328, 1710335043, "2024/3/13 13:4:3",  5,  -55,  1003,  0,  0,  0,  -8,  -27,  -38
1811528, 1710335043, "2024/3/13 13:4:3",  4,  -58,  1004,  0,  0,  -1,  -9,  -26,  -36
1811728, 1710335043, "2024/3/13 13:4:3",  4,  -57,  1004,  0,  -1,  -1,  -9,  -27,  -37
1811928, 1710335044, "2024/3/13 13:4:4",  3,  -58,  1002,  0,  -1,  -1,  -9,  -25,  -38
1812128, 1710335044, "2024/3/13 13:4:4",  3,  -60,  1005,  0,  0,  -1,  -10,  -25,  -37
1812328, 1710335044, "2024/3/13 13:4:4",  7,  -60,  1001,  0,  0,  0,  -9,  -27,  -38
1812528, 1710335044, "2024/3/13 13:4:4",  7,  -63,  1005,  0,  0,  -1,  -9,  -26,  -36
1812728, 1710335044, "2024/3/13 13:4:4",  7,  -63,  1004,  0,  0,  0,  -9,  -27,  -37
1812928, 1710335045, "2024/3/13 13:4:5",  4,  -59,  1000,  0,  0,  0,  -9,  -26,  -39
1813128, 1710335045, "2024/3/13 13:4:5",  4,  -51,  1001,  0,  0,  0,  -9,  -26,  -36
1813328, 1710335045, "2024/3/13 13:4:5",  3,  -63,  1004,  0,  0,  -1,  -9,  -25,  -38
1813528, 1710335045, "2024/3/13 13:4:5",  1,  -52,  1005,  0,  -1,  -1,  -8,  -26,  -36
1813728, 1710335045, "2024/3/13 13:4:5",  2,  -55,  1004,  0,  0,  0,  -9,  -25,  -39
1813928, 1710335046, "2024/3/13 13:4:6",  2,  -62,  1001,  0,  0,  -1,  -8,  -25,  -37
1814128, 1710335046, "2024/3/13 13:4:6",  2,  -60,  1005,  0,  0,  0,  -8,  -25,  -37
1814328, 1710335046, "2024/3/13 13:4:6",  8,  -59,  1004,  0,  0,  0,  -10,  -25,  -37
1814528, 1710335046, "2024/3/13 13:4:6",  2,  -61,  1002,  0,  0,  -1,  -9,  -27,  -37
1814728, 1710335046, "2024/3/13 13:4:6",  2,  -58,  1006,  0,  -1,  0,  -9,  -24,  -39
1814928, 1710335047, "2024/3/13 13:4:7",  5,  -54,  1003,  0,  0,  -1,  -9,  -26,  -39
1815128, 1710335047, "2024/3/13 13:4:7",  7,  -56,  1006,  0,  0,  -1,  -9,  -26,  -37
1815328, 1710335047, "2024/3/13 13:4:7",  3,  -60,  1004,  0,  0,  0,  -8,  -25,  -37
1815528, 1710335047, "2024/3/13 13:4:7",  6,  -56,  1000,  0,  -1,  -1,  -9,  -27,  -38
1815728, 1710335047, "2024/3/13 13:4:7",  7,  -58,  1001,  0,  -1,  0,  -9,  -26,  -37
1815928, 1710335048, "2024/3/13 13:4:8",  4,  -57,  1007,  0,  0,  0,  -8,  -25,  -38
1816128, 1710335048, "2024/3/13 13:4:8",  3,  -64,  1001,  0,  0,  -1,  -9,  -25,  -38
1816328, 1710335048, "2024/3/13 13:4:8",  6,  -59,  1004,  0,  0,  0,  -9,  -27,  -36
1816528, 1710335048, "2024/3/13 13:4:8",  4,  -60,  1002,  0,  0,  -1,  -10,  -24,  -38
1816728, 1710335048, "2024/3/13 13:4:8",  4,  -54,  1003,  0,  0,  0,  -9,  -27,  -39
1816928, 1710335049, "2024/3/13 13:4:9",  6,  -62,  1001,  0,  0,  -1,  -8,  -25,  -37
1817128, 1710335049, "2024/3/13 13:4:9",  5,  -58,  1004,  0,  -1,  0,  -8,  -25,  -39
1817328, 1710335049, "2024/3/13 13:4:9",  4,  -58,  1004,  0,  -1,  -1,  -9,  -25,  -37
1817528, 1710335049, "2024/3/13 13:4:9",  3,  -56,  1005,  0,  0,  -1,  -12,  -25,  -36
1817728, 1710335049, "2024/3/13 13:4:9",  3,  -57,  1005,  0,  0,  0,  -8,  -25,  -37
1817928, 1710335050, "2024/3/13 13:4:10",  1,  -57,  1005,  0,  0,  -1,  -10,  -24,  -36
1818128, 1710335050, "2024/3/13 13:4:10",  10,  -57,  1005,  0,  0,  0,  -8,  -25,  -38
1818328, 1710335050, "2024/3/13 13:4:10",  4,  -63,  1001,  0,  0,  -1,  -8,  -27,  -36
1818528, 1710335050, "2024/3/13 13:4:10",  9,  -56,  1003,  0,  0,  -1,  -9,  -25,  -37
1818728, 1710335050, "2024/3/13 13:4:10",  0,  -60,  996,  0,  0,  -1,  -10,  -25,  -39
1818928, 1710335051, "2024/3/13 13:4:11",  7,  -56,  1006,  0,  0,  -1,  -10,  -26,  -37
1819128, 1710335051, "2024/3/13 13:4:11",  6,  -61,  1003,  0,  0,  -1,  -9,  -27,  -36
1819328, 1710335051, "2024/3/13 13:4:11",  3,  -59,  1002,  0,  0,  -1,  -9,  -25,  -37
1819528, 1710335051, "2024/3/13 13:4:11",  3,  -56,  1003,  0,  0,  -1,  -10,  -25,  -36
1819728, 1710335051, "2024/3/13 13:4:11",  3,  -62,  1004,  0,  0,  -1,  -8,  -26,  -36
1819928, 1710335052, "2024/3/13 13:4:12",  6,  -60,  1004,  0,  0,  -1,  -9,  -25,  -37
1820128, 1710335052, "2024/3/13 13:4:12",  6,  -58,  1002,  0,  -1,  -1,  -9,  -26,  -37
1820328, 1710335052, "2024/3/13 13:4:12",  3,  -58,  1000,  0,  0,  -1,  -8,  -26,  -38
1820528, 1710335052, "2024/3/13 13:4:12",  9,  -60,  1004,  0,  0,  0,  -11,  -26,  -38
1820728, 1710335052, "2024/3/13 13:4:12",  8,  -59,  1005,  0,  -1,  -1,  -9,  -27,  -39
1820928, 1710335053, "2024/3/13 13:4:13",  6,  -56,  1003,  0,  0,  0,  -8,  -25,  -37
1821128, 1710335053, "2024/3/13 13:4:13",  6,  -51,  1001,  0,  0,  0,  -9,  -25,  -37
1821328, 1710335053, "2024/3/13 13:4:13",  5,  -56,  1002,  0,  -1,  0,  -9,  -25,  -37
1821528, 1710335053, "2024/3/13 13:4:13",  4,  -59,  1006,  0,  0,  -1,  -9,  -26,  -37
1821728, 1710335053, "2024/3/13 13:4:13",  6,  -59,  1001,  0,  0,  -1,  -10,  -27,  -37
1821928, 1710335054, "2024/3/13 13:4:14",  8,  -60,  1004,  0,  0,  0,  -8,  -28,  -38
1822128, 1710335054, "2024/3/13 13:4:14",  3,  -59,  1005,  0,  0,  0,  -9,  -27,  -37
1822328, 1710335054, "2024/3/13 13:4:14",  7,  -55,  1002,  0,  0,  0,  -10,  -25,  -37
1822528, 1710335054, "2024/3/13 13:4:14",  5,  -63,  1005,  0,  -1,  -1,  -10,  -25,  -37
1822728, 1710335054, "2024/3/13 13:4:14",  8,  -60,  1003,  0,  0,  0,  -9,  -25,  -38
1822928, 1710335055, "2024/3/13 13:4:15",  8,  -62,  1003,  0,  0,  -1,  -9,  -25,  -37
1823128, 1710335055, "2024/3/13 13:4:15",  -1,  -63,  1002,  0,  0,  -1,  -11,  -24,  -37
1823328, 1710335055, "2024/3/13 13:4:15",  7,  -60,  1001,  0,  0,  0,  -7,  -26,  -39
1823528, 1710335055, "2024/3/13 13:4:15",  6,  -56,  1002,  0,  0,  0,  -9,  -25,  -37
1823728, 1710335055, "2024/3/13 13:4:15",  6,  -59,  1004,  0,  -1,  -1,  -8,  -26,  -36
1823928, 1710335056, "2024/3/13 13:4:16",  4,  -57,  1005,  0,  0,  -1,  -9,  -25,  -38
1824128, 1710335056, "2024/3/13 13:4:16",  5,  -55,  1003,  0,  0,  -1,  -9,  -26,  -37
1824328, 1710335056, "2024/3/13 13:4:16",  7,  -63,  1002,  0,  0,  0,  -8,  -25,  -39
1824528, 1710335056, "2024/3/13 13:4:16",  4,  -61,  1003,  0,  0,  -1,  -9,  -26,  -36
1824728, 1710335056, "2024/3/13 13:4:16",  6,  -56,  1002,  0,  0,  0,  -9,  -24,  -37
1824928, 1710335057, "2024/3/13 13:4:17",  7,  -57,  1004,  0,  0,  -1,  -9,  -26,  -38
1825128, 1710335057, "2024/3/13 13:4:17",  7,  -55,  1004,  0,  0,  -1,  -9,  -26,  -36
1825328, 1710335057, "2024/3/13 13:4:17",  8,  -56,  1006,  0,  0,  -1,  -9,  -25,  -36
1825528, 1710335057, "2024/3/13 13:4:17",  6,  -56,  1007,  0,  0,  -1,  -10,  -25,  -38
1825728, 1710335057, "2024/3/13 13:4:17",  2,  -61,  1007,  0,  0,  -1,  -10,  -27,  -37
1825928, 1710335058, "2024/3/13 13:4:18",  3,  -58,  1001,  0,  -1,  -1,  -9,  -26,  -38
1826128, 1710335058, "2024/3/13 13:4:18",  7,  -61,  1003,  0,  -1,  0,  -9,  -25,  -38
1826328, 1710335058, "2024/3/13 13:4:18",  3,  -58,  1002,  0,  0,  0,  -10,  -26,  -38
1826528, 1710335058, "2024/3/13 13:4:18",  4,  -52,  1006,  0,  0,  -1,  -8,  -28,  -36
1826728, 1710335058, "2024/3/13 13:4:18",  7,  -55,  1004,  0,  0,  0,  -11,  -25,  -38
1826928, 1710335059, "2024/3/13 13:4:19",  9,  -60,  1003,  0,  -1,  0,  -8,  -27,  -37
1827128, 1710335059, "2024/3/13 13:4:19",  0,  -59,  1004,  0,  0,  0,  -9,  -25,  -38
1827328, 1710335059, "2024/3/13 13:4:19",  3,  -60,  1004,  0,  0,  0,  -11,  -24,  -37
1827528, 1710335059, "2024/3/13 13:4:19",  3,  -58,  1004,  0,  0,  -1,  -9,  -26,  -38
1827728, 1710335059, "2024/3/13 13:4:19",  0,  -57,  1007,  0,  0,  0,  -9,  -27,  -38
1827928, 1710335060, "2024/3/13 13:4:20",  6,  -55,  1002,  0,  0,  -1,  -10,  -25,  -37
1828128, 1710335060, "2024/3/13 13:4:20",  6,  -60,  1003,  0,  0,  -1,  -8,  -26,  -39
1828328, 1710335060, "2024/3/13 13:4:20",  5,  -63,  1002,  0,  0,  -1,  -9,  -27,  -37
1828528, 1710335060, "2024/3/13 13:4:20",  0,  -50,  1003,  0,  0,  -1,  -10,  -24,  -38
1828728, 1710335060, "2024/3/13 13:4:20",  5,  -59,  1004,  0,  0,  0,  -10,  -27,  -38
1828928, 1710335061, "2024/3/13 13:4:21",  7,  -60,  1003,  0,  0,  -1,  -10,  -27,  -37
1829128, 1710335061, "2024/3/13 13:4:21",  3,  -56,  1003,  0,  -1,  0,  -9,  -26,  -37
1829328, 1710335061, "2024/3/13 13:4:21",  0,  -58,  1002,  0,  0,  -1,  -9,  -25,  -38
1829528, 1710335061, "2024/3/13 13:4:21",  4,  -57,  1002,  0,  0,  -1,  -8,  -27,  -39
1829728, 1710335061, "2024/3/13 13:4:21",  2,  -57,  1000,  0,  0,  -1,  -9,  -25,  -38
1829928, 1710335062, "2024/3/13 13:4:22",  4,  -59,  1002,  0,  0,  -1,  -8,  -24,  -38
1830128, 1710335062, "2024/3/13 13:4:22",  4,  -57,  1005,  0,  0,  -1,  -10,  -26,  -37
1830328, 1710335062, "2024/3/13 13:4:22",  3,  -56,  998,  0,  0,  -1,  -8,  -25,  -38
1830528, 1710335062, "2024/3/13 13:4:22",  4,  -54,  1004,  0,  0,  -1,  -8,  -26,  -38
1830728, 1710335062, "2024/3/13 13:4:22",  2,  -60,  1002,  0,  -1,  0,  -9,  -26,  -36
1830928, 1710335063, "2024/3/13 13:4:23",  3,  -62,  1000,  0,  0,  -1,  -9,  -25,  -38
1831128, 1710335063, "2024/3/13 13:4:23",  6,  -62,  1001,  0,  -1,  -1,  -10,  -25,  -38
1831328, 1710335063, "2024/3/13 13:4:23",  2,  -54,  1002,  0,  -1,  -1,  -9,  -24,  -37
1831528, 1710335063, "2024/3/13 13:4:23",  10,  -55,  1006,  0,  0,  0,  -9,  -26,  -38
1831728, 1710335063, "2024/3/13 13:4:23",  5,  -56,  1006,  0,  -1,  -1,  -9,  -25,  -36
1831928, 1710335064, "2024/3/13 13:4:24",  2,  -56,  1001,  0,  -1,  -1,  -10,  -25,  -39
1832128, 1710335064, "2024/3/13 13:4:24",  8,  -53,  1001,  0,  -1,  -1,  -10,  -25,  -37
1832328, 1710335064, "2024/3/13 13:4:24",  5,  -54,  1003,  0,  0,  -1,  -8,  -27,  -37
1832528, 1710335064, "2024/3/13 13:4:24",  1,  -59,  1004,  0,  0,  -1,  -10,  -25,  -38
1832728, 1710335064, "2024/3/13 13:4:24",  6,  -58,  1006,  0,  0,  0,  -9,  -25,  -38
1832928, 1710335065, "2024/3/13 13:4:25",  2,  -58,  1004,  0,  0,  -1,  -8,  -26,  -38
1833128, 1710335065, "2024/3/13 13:4:25",  6,  -56,  1004,  0,  -1,  -1,  -9,  -26,  -40
1833328, 1710335065, "2024/3/13 13:4:25",  7,  -58,  1003,  0,  -1,  -1,  -10,  -25,  -37
1833528, 1710335065, "2024/3/13 13:4:25",  5,  -56,  1004,  0,  0,  -1,  -9,  -26,  -39
1833728, 1710335065, "2024/3/13 13:4:25",  6,  -56,  1001,  0,  0,  0,  -10,  -26,  -37
1833928, 1710335066, "2024/3/13 13:4:26",  3,  -55,  1004,  0,  0,  -1,  -10,  -25,  -37
1834128, 1710335066, "2024/3/13 13:4:26",  6,  -59,  1003,  0,  0,  -1,  -9,  -26,  -37
1834328, 1710335066, "2024/3/13 13:4:26",  2,  -57,  1006,  0,  0,  0,  -8,  -26,  -37
1834528, 1710335066, "2024/3/13 13:4:26",  7,  -61,  1002,  0,  0,  -1,  -9,  -25,  -39
1834728, 1710335066, "2024/3/13 13:4:26",  3,  -52,  1005,  0,  0,  0,  -7,  -25,  -38
1834928, 1710335067, "2024/3/13 13:4:27",  3,  -58,  1003,  0,  -1,  -1,  -9,  -27,  -37
1835128, 1710335067, "2024/3/13 13:4:27",  5,  -62,  1004,  0,  0,  0,  -9,  -27,  -37
1835328, 1710335067, "2024/3/13 13:4:27",  4,  -59,  1004,  0,  0,  -1,  -7,  -25,  -38
1835528, 1710335067, "2024/3/13 13:4:27",  8,  -57,  1003,  0,  0,  0,  -10,  -28,  -37
1835728, 1710335067, "2024/3/13 13:4:27",  6,  -57,  1003,  0,  0,  0,  -10,  -27,  -37
1835928, 1710335068, "2024/3/13 13:4:28",  5,  -63,  1005,  0,  0,  -1,  -10,  -28,  -39
1836128, 1710335068, "2024/3/13 13:4:28",  4,  -57,  1003,  0,  0,  -1,  -9,  -27,  -37
1836328, 1710335068, "2024/3/13 13:4:28",  2,  -57,  1008,  0,  0,  -1,  -8,  -27,  -37
1836528, 1710335068, "2024/3/13 13:4:28",  2,  -56,  1004,  0,  0,  -1,  -10,  -26,  -38
1836728, 1710335068, "2024/3/13 13:4:28",  8,  -58,  1005,  0,  0,  0,  -8,  -26,  -38
1836928, 1710335069, "2024/3/13 13:4:29",  4,  -56,  1002,  0,  0,  -1,  -10,  -27,  -37
1837128, 1710335069, "2024/3/13 13:4:29",  5,  -59,  1007,  0,  0,  -1,  -10,  -26,  -38
1837328, 1710335069, "2024/3/13 13:4:29",  7,  -57,  1004,  0,  -1,  -1,  -9,  -26,  -37
1837528, 1710335069, "2024/3/13 13:4:29",  2,  -54,  1001,  0,  0,  -1,  -9,  -25,  -37
1837728, 1710335069, "2024/3/13 13:4:29",  7,  -57,  1009,  0,  0,  -1,  -10,  -27,  -37
1837928, 1710335070, "2024/3/13 13:4:30",  4,  -56,  1004,  0,  0,  -1,  -10,  -26,  -37
1838128, 1710335070, "2024/3/13 13:4:30",  5,  -53,  1001,  0,  0,  -1,  -10,  -25,  -37
1838328, 1710335070, "2024/3/13 13:4:30",  3,  -59,  1003,  0,  0,  0,  -9,  -26,  -37
1838528, 1710335070, "2024/3/13 13:4:30",  6,  -63,  1002,  0,  0,  0,  -10,  -24,  -38
1838728, 1710335070, "2024/3/13 13:4:30",  0,  -58,  1004,  0,  0,  -1,  -9,  -26,  -37
1838928, 1710335071, "2024/3/13 13:4:31",  3,  -58,  1000,  0,  0,  -1,  -9,  -25,  -36
1839128, 1710335071, "2024/3/13 13:4:31",  4,  -53,  999,  0,  0,  0,  -9,  -24,  -39
1839328, 1710335071, "2024/3/13 13:4:31",  0,  -59,  999,  0,  0,  -1,  -9,  -26,  -38
1839528, 1710335071, "2024/3/13 13:4:31",  7,  -61,  1006,  0,  0,  -1,  -9,  -25,  -38
1839728, 1710335071, "2024/3/13 13:4:31",  5,  -57,  1003,  0,  0,  -1,  -9,  -27,  -37
1839928, 1710335072, "2024/3/13 13:4:32",  0,  -56,  1004,  0,  0,  -1,  -10,  -27,  -37
1840128, 1710335072, "2024/3/13 13:4:32",  6,  -56,  1000,  0,  -1,  0,  -9,  -27,  -39
1840328, 1710335072, "2024/3/13 13:4:32",  7,  -56,  1002,  0,  0,  -1,  -10,  -23,  -37
1840528, 1710335072, "2024/3/13 13:4:32",  4,  -61,  1000,  1,  -1,  -1,  -10,  -26,  -38
1840728, 1710335072, "2024/3/13 13:4:32",  2,  -58,  1005,  0,  -1,  0,  -9,  -27,  -37
1840928, 1710335073, "2024/3/13 13:4:33",  4,  -54,  1005,  0,  0,  0,  -9,  -25,  -37
1841128, 1710335073, "2024/3/13 13:4:33",  6,  -62,  1004,  0,  0,  -1,  -11,  -25,  -37
1841328, 1710335073, "2024/3/13 13:4:33",  8,  -53,  1002,  0,  0,  -1,  -9,  -27,  -36
1841528, 1710335073, "2024/3/13 13:4:33",  5,  -57,  1003,  0,  0,  -1,  -8,  -26,  -37
1841728, 1710335073, "2024/3/13 13:4:33",  2,  -57,  1003,  0,  0,  -1,  -9,  -26,  -37
1841928, 1710335074, "2024/3/13 13:4:34",  5,  -58,  1002,  0,  0,  0,  -9,  -26,  -37
1842128, 1710335074, "2024/3/13 13:4:34",  5,  -65,  1001,  0,  0,  -1,  -9,  -25,  -35
1842328, 1710335074, "2024/3/13 13:4:34",  1,  -61,  1004,  0,  0,  -1,  -9,  -27,  -37
1842528, 1710335074, "2024/3/13 13:4:34",  5,  -57,  1006,  0,  0,  -1,  -10,  -26,  -38
1842728, 1710335074, "2024/3/13 13:4:34",  6,  -61,  1003,  0,  0,  -1,  -8,  -26,  -37
1842928, 1710335075, "2024/3/13 13:4:35",  3,  -60,  1003,  0,  -1,  -1,  -9,  -25,  -38
1843128, 1710335075, "2024/3/13 13:4:35",  3,  -60,  1003,  0,  0,  -1,  -10,  -24,  -37
1843328, 1710335075, "2024/3/13 13:4:35",  1,  -55,  1003,  0,  0,  0,  -10,  -25,  -38
1843528, 1710335075, "2024/3/13 13:4:35",  2,  -60,  1004,  0,  0,  -1,  -8,  -26,  -36
