millis,stamp,datetime,accX,accY,accZ,gyroX,gyroY,gyroZ,compX,compY,compZ
1294869, 1710334526, "2024/3/13 12:55:26",  1,  -60,  1000,  0,  0,  -1,  -11,  -27,  -36
1295069, 1710334526, "2024/3/13 12:55:26",  6,  -64,  1002,  0,  0,  0,  -11,  -25,  -37
1295269, 1710334527, "2024/3/13 12:55:27",  2,  -54,  1005,  0,  0,  0,  -12,  -27,  -35
1295469, 1710334527, "2024/3/13 12:55:27",  12,  -52,  1006,  0,  0,  -1,  -11,  -27,  -37
1295669, 1710334527, "2024/3/13 12:55:27",  4,  -62,  1001,  0,  0,  -1,  -9,  -27,  -36
1295869, 1710334527, "2024/3/13 12:55:27",  7,  -54,  1002,  0,  0,  0,  -12,  -26,  -36
1296069, 1710334527, "2024/3/13 12:55:27",  10,  -52,  1008,  0,  0,  0,  -11,  -26,  -35
1296269, 1710334528, "2024/3/13 12:55:28",  3,  -56,  1002,  0,  0,  -1,  -11,  -27,  -37
1296470, 1710334528, "2024/3/13 12:55:28",  3,  -56,  1002,  0,  0,  0,  -11,  -26,  -36
1296670, 1710334528, "2024/3/13 12:55:28",  3,  -57,  1005,  0,  0,  -1,  -10,  -26,  -38
1296870, 1710334528, "2024/3/13 12:55:28",  5,  -61,  1007,  0,  0,  0,  -10,  -27,  -35
1297070, 1710334528, "2024/3/13 12:55:28",  4,  -57,  1005,  0,  0,  -1,  -11,  -26,  -36
1297270, 1710334529, "2024/3/13 12:55:29",  5,  -61,  1005,  0,  0,  -1,  -10,  -26,  -36
1297470, 1710334529, "2024/3/13 12:55:29",  0,  -49,  1002,  0,  0,  0,  -11,  -27,  -36
1297670, 1710334529, "2024/3/13 12:55:29",  3,  -56,  1002,  0,  0,  -1,  -11,  -27,  -36
1297870, 1710334529, "2024/3/13 12:55:29",  0,  -61,  1004,  0,  0,  0,  -10,  -29,  -35
1298070, 1710334529, "2024/3/13 12:55:29",  7,  -56,  1000,  0,  0,  -1,  -12,  -26,  -36
1298270, 1710334530, "2024/3/13 12:55:30",  3,  -58,  1001,  0,  -1,  -1,  -10,  -25,  -35
1298470, 1710334530, "2024/3/13 12:55:30",  3,  -58,  1003,  0,  0,  0,  -10,  -27,  -34
1298670, 1710334530, "2024/3/13 12:55:30",  4,  -58,  1005,  0,  0,  0,  -11,  -27,  -36
1298870, 1710334530, "2024/3/13 12:55:30",  3,  -57,  1004,  0,  0,  -1,  -9,  -27,  -36
1299070, 1710334530, "2024/3/13 12:55:30",  1,  -53,  1006,  0,  0,  -1,  -11,  -25,  -35
1299270, 1710334531, "2024/3/13 12:55:31",  3,  -63,  1003,  0,  0,  -1,  -12,  -26,  -36
1299470, 1710334531, "2024/3/13 12:55:31",  0,  -54,  1006,  0,  0,  -1,  -10,  -26,  -35
1299670, 1710334531, "2024/3/13 12:55:31",  8,  -57,  1005,  0,  0,  -1,  -12,  -26,  -36
1299870, 1710334531, "2024/3/13 12:55:31",  2,  -55,  1006,  0,  0,  0,  -10,  -26,  -36
1300070, 1710334531, "2024/3/13 12:55:31",  6,  -57,  1003,  0,  -1,  0,  -11,  -25,  -35
1300270, 1710334532, "2024/3/13 12:55:32",  7,  -57,  1003,  0,  0,  0,  -10,  -26,  -35
1300470, 1710334532, "2024/3/13 12:55:32",  9,  -56,  1003,  0,  0,  0,  -9,  -26,  -36
1300670, 1710334532, "2024/3/13 12:55:32",  7,  -55,  1001,  0,  0,  -1,  -11,  -26,  -37
1300870, 1710334532, "2024/3/13 12:55:32",  5,  -51,  1002,  0,  -1,  -1,  -11,  -26,  -36
1301070, 1710334532, "2024/3/13 12:55:32",  5,  -58,  1009,  0,  0,  -1,  -11,  -27,  -36
1301270, 1710334533, "2024/3/13 12:55:33",  4,  -62,  1005,  0,  0,  -1,  -11,  -26,  -36
1301470, 1710334533, "2024/3/13 12:55:33",  5,  -59,  1004,  0,  0,  -1,  -9,  -27,  -36
1301670, 1710334533, "2024/3/13 12:55:33",  4,  -60,  1004,  0,  0,  -1,  -10,  -26,  -35
1301870, 1710334533, "2024/3/13 12:55:33",  1,  -52,  1004,  0,  0,  -1,  -11,  -26,  -36
1302070, 1710334533, "2024/3/13 12:55:33",  6,  -57,  1002,  0,  -1,  -1,  -12,  -27,  -36
1302270, 1710334534, "2024/3/13 12:55:34",  5,  -57,  1005,  0,  0,  -1,  -12,  -27,  -36
1302470, 1710334534, "2024/3/13 12:55:34",  5,  -60,  1004,  0,  0,  -1,  -11,  -26,  -34
1302670, 1710334534, "2024/3/13 12:55:34",  11,  -57,  1005,  0,  0,  -1,  -11,  -25,  -35
1302870, 1710334534, "2024/3/13 12:55:34",  4,  -63,  1005,  0,  0,  -1,  -10,  -28,  -36
1303070, 1710334534, "2024/3/13 12:55:34",  7,  -64,  1009,  0,  0,  -1,  -11,  -25,  -36
1303270, 1710334535, "2024/3/13 12:55:35",  7,  -57,  1005,  0,  0,  -1,  -12,  -26,  -36
1303470, 1710334535, "2024/3/13 12:55:35",  12,  -61,  1006,  0,  -1,  0,  -11,  -27,  -35
1303670, 1710334535, "2024/3/13 12:55:35",  12,  -63,  1006,  0,  0,  -1,  -9,  -27,  -35
1303870, 1710334535, "2024/3/13 12:55:35",  5,  -57,  1005,  0,  0,  -1,  -11,  -27,  -35
1304070, 1710334535, "2024/3/13 12:55:35",  14,  -65,  1002,  1,  0,  -1,  -11,  -28,  -36
1304270, 1710334536, "2024/3/13 12:55:36",  9,  -59,  1001,  0,  0,  -1,  -13,  -26,  -36
1304470, 1710334536, "2024/3/13 12:55:36",  4,  -41,  1002,  0,  -1,  0,  -10,  -26,  -36
1304670, 1710334536, "2024/3/13 12:55:36",  9,  -58,  999,  0,  0,  -1,  -12,  -27,  -35
1304870, 1710334536, "2024/3/13 12:55:36",  3,  -59,  1004,  0,  0,  0,  -10,  -27,  -36
1305070, 1710334536, "2024/3/13 12:55:36",  7,  -55,  1005,  0,  0,  -1,  -10,  -26,  -36
1305270, 1710334537, "2024/3/13 12:55:37",  6,  -57,  1004,  0,  -1,  0,  -10,  -27,  -37
1305470, 1710334537, "2024/3/13 12:55:37",  6,  -58,  1001,  0,  0,  -1,  -12,  -28,  -35
1305670, 1710334537, "2024/3/13 12:55:37",  4,  -55,  1005,  0,  0,  0,  -12,  -26,  -36
1305870, 1710334537, "2024/3/13 12:55:37",  7,  -55,  1004,  0,  0,  0,  -11,  -26,  -36
1306070, 1710334537, "2024/3/13 12:55:37",  3,  -55,  1004,  0,  0,  -1,  -11,  -25,  -37
1306270, 1710334538, "2024/3/13 12:55:38",  15,  -59,  1004,  0,  -1,  0,  -11,  -26,  -36
1306470, 1710334538, "2024/3/13 12:55:38",  9,  -56,  1001,  0,  -1,  -1,  -11,  -26,  -35
1306670, 1710334538, "2024/3/13 12:55:38",  8,  -58,  1001,  0,  0,  -1,  -11,  -27,  -37
1306870, 1710334538, "2024/3/13 12:55:38",  10,  -55,  1003,  0,  0,  -1,  -10,  -26,  -36
1307070, 1710334538, "2024/3/13 12:55:38",  9,  -60,  1004,  0,  -1,  -1,  -11,  -26,  -35
1307270, 1710334539, "2024/3/13 12:55:39",  12,  -57,  1005,  0,  0,  -1,  -10,  -25,  -34
1307470, 1710334539, "2024/3/13 12:55:39",  7,  -59,  1004,  0,  0,  -1,  -10,  -27,  -36
1307670, 1710334539, "2024/3/13 12:55:39",  5,  -62,  1006,  0,  0,  0,  -11,  -25,  -35
1307870, 1710334539, "2024/3/13 12:55:39",  5,  -59,  991,  1,  -1,  -1,  -12,  -25,  -36
1308070, 1710334539, "2024/3/13 12:55:39",  -1,  -50,  1000,  0,  -1,  -1,  -11,  -26,  -36
1308270, 1710334540, "2024/3/13 12:55:40",  1,  -64,  1002,  0,  -1,  -1,  -11,  -26,  -37
1308470, 1710334540, "2024/3/13 12:55:40",  2,  -61,  1006,  0,  0,  -1,  -11,  -27,  -36
1308670, 1710334540, "2024/3/13 12:55:40",  6,  -61,  1003,  0,  0,  -1,  -12,  -26,  -35
1308870, 1710334540, "2024/3/13 12:55:40",  10,  -60,  1004,  0,  0,  -1,  -9,  -27,  -35
1309070, 1710334540, "2024/3/13 12:55:40",  7,  -54,  1000,  0,  0,  -1,  -10,  -26,  -35
1309270, 1710334541, "2024/3/13 12:55:41",  5,  -53,  1000,  0,  0,  -1,  -11,  -27,  -36
1309470, 1710334541, "2024/3/13 12:55:41",  7,  -55,  1001,  0,  0,  -1,  -11,  -27,  -34
1309670, 1710334541, "2024/3/13 12:55:41",  5,  -60,  1006,  0,  0,  -1,  -11,  -27,  -36
1309870, 1710334541, "2024/3/13 12:55:41",  9,  -63,  1003,  0,  0,  -1,  -11,  -27,  -35
1310070, 1710334541, "2024/3/13 12:55:41",  7,  -57,  1005,  0,  0,  -1,  -12,  -27,  -36
1310270, 1710334542, "2024/3/13 12:55:42",  3,  -61,  1004,  0,  0,  -1,  -9,  -26,  -34
1310470, 1710334542, "2024/3/13 12:55:42",  8,  -53,  1008,  0,  0,  -1,  -11,  -26,  -36
1310670, 1710334542, "2024/3/13 12:55:42",  0,  -57,  1003,  0,  0,  0,  -10,  -27,  -35
1310870, 1710334542, "2024/3/13 12:55:42",  3,  -59,  1005,  0,  0,  0,  -10,  -26,  -36
1311070, 1710334542, "2024/3/13 12:55:42",  7,  -62,  1004,  0,  0,  -1,  -10,  -27,  -36
1311270, 1710334543, "2024/3/13 12:55:43",  5,  -58,  1004,  0,  0,  0,  -11,  -28,  -36
1311470, 1710334543, "2024/3/13 12:55:43",  3,  -57,  1002,  0,  0,  0,  -10,  -26,  -36
1311670, 1710334543, "2024/3/13 12:55:43",  6,  -59,  1003,  0,  0,  0,  -12,  -24,  -34
1311870, 1710334543, "2024/3/13 12:55:43",  6,  -61,  1003,  0,  0,  0,  -11,  -25,  -36
1312070, 1710334543, "2024/3/13 12:55:43",  8,  -58,  1002,  0,  0,  -1,  -10,  -27,  -36
1312270, 1710334544, "2024/3/13 12:55:44",  7,  -61,  1002,  0,  0,  -1,  -9,  -25,  -35
1312470, 1710334544, "2024/3/13 12:55:44",  8,  -53,  1005,  0,  0,  0,  -10,  -27,  -36
1312670, 1710334544, "2024/3/13 12:55:44",  4,  -56,  1003,  0,  0,  -1,  -12,  -25,  -36
1312870, 1710334544, "2024/3/13 12:55:44",  6,  -60,  1002,  0,  0,  -1,  -12,  -28,  -36
1313070, 1710334544, "2024/3/13 12:55:44",  6,  -56,  1003,  0,  0,  -1,  -11,  -27,  -36
1313270, 1710334545, "2024/3/13 12:55:45",  -6,  -51,  996,  0,  0,  0,  -12,  -25,  -37
1313470, 1710334545, "2024/3/13 12:55:45",  6,  -61,  1006,  0,  0,  -1,  -11,  -25,  -36
1313670, 1710334545, "2024/3/13 12:55:45",  7,  -61,  1007,  0,  -1,  -1,  -11,  -26,  -36
1313870, 1710334545, "2024/3/13 12:55:45",  9,  -58,  1004,  0,  0,  -1,  -11,  -25,  -35
1314070, 1710334545, "2024/3/13 12:55:45",  3,  -57,  1005,  0,  0,  0,  -10,  -27,  -34
1314270, 1710334546, "2024/3/13 12:55:46",  7,  -50,  1008,  0,  0,  -1,  -11,  -25,  -34
1314470, 1710334546, "2024/3/13 12:55:46",  5,  -56,  1006,  0,  0,  -1,  -11,  -25,  -36
1314670, 1710334546, "2024/3/13 12:55:46",  4,  -55,  1002,  0,  0,  -1,  -11,  -26,  -36
1314870, 1710334546, "2024/3/13 12:55:46",  8,  -54,  1009,  0,  0,  -1,  -9,  -25,  -36
1315070, 1710334546, "2024/3/13 12:55:46",  10,  -51,  1000,  0,  0,  -1,  -11,  -28,  -36
1315270, 1710334547, "2024/3/13 12:55:47",  7,  -52,  1002,  0,  0,  -1,  -12,  -27,  -36
1315470, 1710334547, "2024/3/13 12:55:47",  4,  -61,  1009,  0,  -1,  -1,  -12,  -27,  -37
1315670, 1710334547, "2024/3/13 12:55:47",  8,  -53,  1005,  0,  0,  -1,  -11,  -26,  -37
1315870, 1710334547, "2024/3/13 12:55:47",  6,  -58,  1007,  0,  0,  0,  -11,  -25,  -36
1316070, 1710334547, "2024/3/13 12:55:47",  7,  -57,  1007,  0,  0,  -1,  -11,  -27,  -35
1316270, 1710334548, "2024/3/13 12:55:48",  10,  -63,  1002,  0,  0,  -1,  -10,  -27,  -34
1316470, 1710334548, "2024/3/13 12:55:48",  5,  -56,  1004,  0,  -1,  -1,  -10,  -25,  -36
1316670, 1710334548, "2024/3/13 12:55:48",  5,  -54,  1003,  0,  0,  0,  -10,  -27,  -35
1316870, 1710334548, "2024/3/13 12:55:48",  6,  -62,  1004,  0,  0,  -1,  -11,  -27,  -36
1317070, 1710334548, "2024/3/13 12:55:48",  0,  -59,  1002,  0,  0,  0,  -11,  -26,  -37
1317270, 1710334549, "2024/3/13 12:55:49",  6,  -56,  1003,  0,  0,  -1,  -11,  -25,  -36
1317470, 1710334549, "2024/3/13 12:55:49",  4,  -60,  1005,  0,  0,  -1,  -10,  -27,  -36
1317670, 1710334549, "2024/3/13 12:55:49",  3,  -61,  1002,  0,  0,  -1,  -11,  -25,  -35
1317870, 1710334549, "2024/3/13 12:55:49",  2,  -54,  1000,  0,  -1,  -1,  -12,  -26,  -36
1318070, 1710334549, "2024/3/13 12:55:49",  8,  -58,  1002,  0,  0,  0,  -11,  -27,  -36
1318270, 1710334550, "2024/3/13 12:55:50",  2,  -53,  1004,  0,  0,  0,  -11,  -27,  -36
1318470, 1710334550, "2024/3/13 12:55:50",  -1,  -59,  1006,  0,  0,  0,  -10,  -26,  -35
1318670, 1710334550, "2024/3/13 12:55:50",  7,  -54,  1004,  0,  0,  -1,  -11,  -27,  -36
1318870, 1710334550, "2024/3/13 12:55:50",  5,  -53,  1006,  0,  0,  -1,  -11,  -27,  -36
1319070, 1710334550, "2024/3/13 12:55:50",  1,  -56,  1004,  0,  0,  -1,  -11,  -25,  -36
1319270, 1710334551, "2024/3/13 12:55:51",  4,  -58,  1007,  0,  0,  -1,  -9,  -27,  -36
1319470, 1710334551, "2024/3/13 12:55:51",  2,  -62,  1003,  0,  0,  -1,  -12,  -27,  -36
1319670, 1710334551, "2024/3/13 12:55:51",  5,  -56,  1004,  0,  0,  0,  -11,  -25,  -36
1319870, 1710334551, "2024/3/13 12:55:51",  8,  -57,  1003,  0,  0,  -1,  -11,  -27,  -36
1320070, 1710334551, "2024/3/13 12:55:51",  5,  -55,  1006,  0,  0,  -1,  -11,  -27,  -37
1320270, 1710334552, "2024/3/13 12:55:52",  2,  -60,  1004,  0,  0,  -1,  -13,  -27,  -36
1320470, 1710334552, "2024/3/13 12:55:52",  2,  -54,  999,  0,  -1,  0,  -13,  -25,  -36
1320670, 1710334552, "2024/3/13 12:55:52",  8,  -57,  1005,  0,  -1,  -1,  -12,  -26,  -35
1320870, 1710334552, "2024/3/13 12:55:52",  2,  -57,  1002,  0,  0,  0,  -12,  -27,  -36
1321070, 1710334552, "2024/3/13 12:55:52",  5,  -55,  1004,  0,  0,  -1,  -11,  -27,  -37
1321270, 1710334553, "2024/3/13 12:55:53",  7,  -60,  1003,  0,  0,  0,  -9,  -26,  -36
1321470, 1710334553, "2024/3/13 12:55:53",  3,  -52,  1001,  0,  0,  -1,  -11,  -27,  -36
1321670, 1710334553, "2024/3/13 12:55:53",  4,  -59,  1002,  0,  0,  -1,  -12,  -26,  -37
1321870, 1710334553, "2024/3/13 12:55:53",  7,  -60,  1004,  0,  0,  -1,  -11,  -27,  -36
1322070, 1710334553, "2024/3/13 12:55:53",  7,  -57,  1003,  0,  0,  0,  -12,  -26,  -36
1322270, 1710334554, "2024/3/13 12:55:54",  7,  -53,  1008,  0,  0,  -1,  -12,  -27,  -37
1322470, 1710334554, "2024/3/13 12:55:54",  3,  -60,  1002,  0,  0,  -1,  -12,  -26,  -35
1322670, 1710334554, "2024/3/13 12:55:54",  3,  -62,  1004,  0,  -1,  -1,  -11,  -25,  -36
1322870, 1710334554, "2024/3/13 12:55:54",  7,  -61,  1002,  0,  0,  0,  -9,  -27,  -36
1323070, 1710334554, "2024/3/13 12:55:54",  5,  -61,  1001,  0,  0,  -1,  -11,  -26,  -36
1323270, 1710334555, "2024/3/13 12:55:55",  6,  -59,  1003,  0,  0,  -1,  -11,  -27,  -37
1323470, 1710334555, "2024/3/13 12:55:55",  6,  -51,  1002,  0,  0,  -1,  -11,  -26,  -36
1323670, 1710334555, "2024/3/13 12:55:55",  0,  -53,  1006,  0,  0,  -1,  -11,  -26,  -35
1323870, 1710334555, "2024/3/13 12:55:55",  5,  -64,  1005,  0,  0,  -1,  -9,  -27,  -37
1324070, 1710334555, "2024/3/13 12:55:55",  5,  -57,  1005,  0,  0,  0,  -11,  -27,  -35
1324270, 1710334556, "2024/3/13 12:55:56",  7,  -54,  1002,  0,  -1,  -1,  -11,  -25,  -35
1324470, 1710334556, "2024/3/13 12:55:56",  7,  -56,  1002,  0,  0,  0,  -12,  -26,  -37
1324670, 1710334556, "2024/3/13 12:55:56",  3,  -60,  1000,  0,  0,  -1,  -11,  -27,  -36
1324870, 1710334556, "2024/3/13 12:55:56",  6,  -55,  1008,  0,  0,  -1,  -11,  -26,  -37
1325070, 1710334556, "2024/3/13 12:55:56",  1,  -57,  1006,  0,  0,  0,  -12,  -27,  -36
1325270, 1710334557, "2024/3/13 12:55:57",  7,  -56,  1001,  0,  0,  0,  -11,  -26,  -36
1325470, 1710334557, "2024/3/13 12:55:57",  4,  -60,  1003,  0,  0,  -1,  -11,  -26,  -36
1325670, 1710334557, "2024/3/13 12:55:57",  9,  -59,  1004,  0,  0,  -1,  -10,  -26,  -36
1325870, 1710334557, "2024/3/13 12:55:57",  0,  -60,  1002,  0,  0,  0,  -11,  -26,  -37
1326070, 1710334557, "2024/3/13 12:55:57",  3,  -59,  1005,  0,  0,  -1,  -10,  -26,  -35
1326270, 1710334558, "2024/3/13 12:55:58",  6,  -53,  1006,  0,  0,  -1,  -9,  -26,  -36
1326470, 1710334558, "2024/3/13 12:55:58",  13,  -56,  1017,  0,  0,  0,  -11,  -27,  -36
1326670, 1710334558, "2024/3/13 12:55:58",  4,  -62,  1003,  0,  0,  -1,  -12,  -27,  -36
1326870, 1710334558, "2024/3/13 12:55:58",  3,  -62,  1004,  0,  -1,  -1,  -11,  -27,  -35
1327070, 1710334558, "2024/3/13 12:55:58",  6,  -57,  1003,  0,  0,  -1,  -10,  -27,  -36
1327270, 1710334559, "2024/3/13 12:55:59",  9,  -54,  1007,  0,  0,  0,  -11,  -27,  -36
1327470, 1710334559, "2024/3/13 12:55:59",  9,  -55,  1004,  0,  0,  -1,  -11,  -28,  -36
1327670, 1710334559, "2024/3/13 12:55:59",  3,  -55,  1004,  0,  0,  -1,  -11,  -26,  -35
1327870, 1710334559, "2024/3/13 12:55:59",  2,  -58,  1006,  0,  -1,  -1,  -12,  -27,  -37
1328070, 1710334559, "2024/3/13 12:55:59",  3,  -59,  1006,  0,  -1,  0,  -11,  -26,  -36
1328270, 1710334560, "2024/3/13 12:56:0",  7,  -61,  1002,  0,  0,  -1,  -12,  -27,  -37
1328470, 1710334560, "2024/3/13 12:56:0",  1,  -55,  1004,  0,  0,  -1,  -11,  -26,  -37
1328670, 1710334560, "2024/3/13 12:56:0",  6,  -66,  1006,  1,  0,  -1,  -11,  -27,  -36
1328870, 1710334560, "2024/3/13 12:56:0",  6,  -52,  1002,  0,  0,  -1,  -11,  -26,  -36
1329070, 1710334560, "2024/3/13 12:56:0",  8,  -61,  1000,  0,  0,  -1,  -13,  -28,  -37
1329270, 1710334561, "2024/3/13 12:56:1",  5,  -57,  1007,  0,  0,  -1,  -11,  -28,  -36
1329470, 1710334561, "2024/3/13 12:56:1",  9,  -59,  1006,  0,  -1,  -1,  -13,  -26,  -36
1329670, 1710334561, "2024/3/13 12:56:1",  3,  -54,  1003,  0,  0,  -1,  -13,  -27,  -36
1329870, 1710334561, "2024/3/13 12:56:1",  8,  -60,  1002,  0,  0,  0,  -9,  -26,  -36
1330070, 1710334561, "2024/3/13 12:56:1",  7,  -52,  1006,  0,  0,  -1,  -11,  -27,  -36
1330270, 1710334562, "2024/3/13 12:56:2",  7,  -59,  1003,  0,  0,  0,  -10,  -28,  -34
1330470, 1710334562, "2024/3/13 12:56:2",  4,  -55,  1003,  0,  0,  0,  -11,  -26,  -37
1330670, 1710334562, "2024/3/13 12:56:2",  5,  -53,  1002,  0,  0,  -1,  -13,  -26,  -35
1330870, 1710334562, "2024/3/13 12:56:2",  5,  -56,  1005,  0,  0,  -1,  -11,  -25,  -37
1331070, 1710334562, "2024/3/13 12:56:2",  0,  -54,  1007,  0,  0,  -1,  -11,  -25,  -35
1331270, 1710334563, "2024/3/13 12:56:3",  3,  -60,  1005,  0,  0,  0,  -10,  -25,  -34
1331470, 1710334563, "2024/3/13 12:56:3",  1,  -54,  1002,  0,  0,  -1,  -12,  -28,  -35
1331670, 1710334563, "2024/3/13 12:56:3",  2,  -62,  1004,  0,  0,  -1,  -12,  -27,  -35
1331870, 1710334563, "2024/3/13 12:56:3",  9,  -54,  1003,  0,  0,  0,  -11,  -25,  -35
1332070, 1710334563, "2024/3/13 12:56:3",  4,  -61,  1003,  0,  0,  -1,  -11,  -26,  -35
1332270, 1710334564, "2024/3/13 12:56:4",  6,  -56,  1002,  0,  0,  -1,  -11,  -26,  -35
1332470, 1710334564, "2024/3/13 12:56:4",  8,  -62,  999,  0,  0,  -1,  -12,  -26,  -34
1332670, 1710334564, "2024/3/13 12:56:4",  1,  -60,  1003,  0,  0,  -1,  -11,  -27,  -36
1332870, 1710334564, "2024/3/13 12:56:4",  3,  -53,  1004,  0,  0,  -1,  -12,  -27,  -35
1333070, 1710334564, "2024/3/13 12:56:4",  0,  -59,  1009,  0,  0,  -1,  -13,  -25,  -36
1333270, 1710334565, "2024/3/13 12:56:5",  5,  -56,  1008,  0,  0,  -1,  -10,  -26,  -36
1333470, 1710334565, "2024/3/13 12:56:5",  7,  -54,  1000,  0,  0,  -1,  -12,  -25,  -37
1333670, 1710334565, "2024/3/13 12:56:5",  9,  -50,  1005,  0,  0,  0,  -9,  -26,  -37
1333870, 1710334565, "2024/3/13 12:56:5",  0,  -56,  1000,  0,  0,  -1,  -11,  -26,  -37
1334070, 1710334565, "2024/3/13 12:56:5",  7,  -54,  1004,  0,  0,  0,  -10,  -25,  -36
1334270, 1710334566, "2024/3/13 12:56:6",  1,  -57,  1007,  1,  -1,  -1,  -12,  -25,  -37
1334470, 1710334566, "2024/3/13 12:56:6",  6,  -56,  1005,  0,  0,  0,  -11,  -26,  -36
1334670, 1710334566, "2024/3/13 12:56:6",  7,  -51,  1004,  0,  -1,  -1,  -10,  -27,  -36
1334870, 1710334566, "2024/3/13 12:56:6",  8,  -57,  1003,  0,  0,  -1,  -12,  -27,  -36
1335070, 1710334566, "2024/3/13 12:56:6",  6,  -59,  1003,  0,  0,  0,  -11,  -25,  -36
1335270, 1710334567, "2024/3/13 12:56:7",  5,  -54,  1003,  0,  0,  -1,  -12,  -25,  -36
1335470, 1710334567, "2024/3/13 12:56:7",  5,  -60,  1007,  0,  0,  -1,  -11,  -27,  -37
1335670, 1710334567, "2024/3/13 12:56:7",  5,  -55,  1008,  0,  -1,  -1,  -12,  -28,  -35
1335870, 1710334567, "2024/3/13 12:56:7",  1,  -58,  1005,  0,  0,  -1,  -12,  -27,  -36
1336070, 1710334567, "2024/3/13 12:56:7",  2,  -60,  1006,  0,  0,  0,  -12,  -26,  -35
1336270, 1710334568, "2024/3/13 12:56:8",  4,  -59,  1005,  0,  0,  -1,  -11,  -26,  -35
1336470, 1710334568, "2024/3/13 12:56:8",  8,  -56,  1001,  0,  0,  0,  -11,  -27,  -35
1336670, 1710334568, "2024/3/13 12:56:8",  9,  -56,  1004,  0,  0,  -1,  -10,  -28,  -36
1336870, 1710334568, "2024/3/13 12:56:8",  2,  -59,  1005,  0,  0,  0,  -10,  -25,  -35
1337070, 1710334568, "2024/3/13 12:56:8",  5,  -58,  1004,  0,  0,  0,  -11,  -26,  -36
1337270, 1710334569, "2024/3/13 12:56:9",  8,  -55,  1006,  0,  0,  -1,  -12,  -25,  -36
1337470, 1710334569, "2024/3/13 12:56:9",  4,  -57,  1006,  0,  -1,  -1,  -10,  -26,  -36
1337670, 1710334569, "2024/3/13 12:56:9",  2,  -59,  1005,  0,  0,  -1,  -12,  -26,  -36
1337870, 1710334569, "2024/3/13 12:56:9",  2,  -56,  1008,  0,  0,  0,  -11,  -27,  -36
1338070, 1710334569, "2024/3/13 12:56:9",  3,  -63,  1002,  0,  0,  -1,  -11,  -25,  -37
1338270, 1710334570, "2024/3/13 12:56:10",  6,  -59,  1008,  0,  0,  0,  -11,  -25,  -35
1338470, 1710334570, "2024/3/13 12:56:10",  4,  -58,  1004,  0,  -1,  -1,  -11,  -27,  -35
1338670, 1710334570, "2024/3/13 12:56:10",  5,  -61,  1004,  0,  0,  -1,  -12,  -25,  -36
1338870, 1710334570, "2024/3/13 12:56:10",  5,  -56,  1004,  0,  0,  -1,  -12,  -25,  -37
1339070, 1710334570, "2024/3/13 12:56:10",  7,  -56,  1006,  0,  0,  -1,  -11,  -26,  -35
1339270, 1710334571, "2024/3/13 12:56:11",  1,  -57,  1001,  0,  0,  0,  -11,  -27,  -35
1339470, 1710334571, "2024/3/13 12:56:11",  5,  -59,  1003,  0,  0,  0,  -9,  -27,  -36
1339670, 1710334571, "2024/3/13 12:56:11",  7,  -57,  1002,  0,  0,  -1,  -11,  -25,  -35
1339870, 1710334571, "2024/3/13 12:56:11",  8,  -55,  1006,  0,  0,  -1,  -11,  -25,  -33
1340070, 1710334571, "2024/3/13 12:56:11",  5,  -57,  1005,  0,  0,  -1,  -11,  -26,  -35
1340270, 1710334572, "2024/3/13 12:56:12",  3,  -53,  1000,  0,  0,  -1,  -10,  -27,  -34
1340470, 1710334572, "2024/3/13 12:56:12",  4,  -56,  1013,  0,  0,  -1,  -11,  -25,  -37
1340670, 1710334572, "2024/3/13 12:56:12",  5,  -56,  1001,  0,  0,  0,  -10,  -27,  -37
1340870, 1710334572, "2024/3/13 12:56:12",  5,  -59,  1003,  0,  0,  0,  -10,  -27,  -35
1341070, 1710334572, "2024/3/13 12:56:12",  3,  -59,  999,  0,  0,  0,  -11,  -26,  -35
1341270, 1710334573, "2024/3/13 12:56:13",  5,  -57,  1004,  0,  0,  -1,  -12,  -27,  -36
1341470, 1710334573, "2024/3/13 12:56:13",  5,  -59,  1004,  0,  0,  0,  -11,  -26,  -36
1341670, 1710334573, "2024/3/13 12:56:13",  7,  -58,  1000,  0,  0,  0,  -12,  -25,  -36
1341870, 1710334573, "2024/3/13 12:56:13",  5,  -50,  1000,  0,  0,  0,  -11,  -25,  -37
1342070, 1710334573, "2024/3/13 12:56:13",  3,  -51,  1003,  0,  -1,  -1,  -12,  -26,  -36
1342270, 1710334574, "2024/3/13 12:56:14",  6,  -59,  1004,  0,  0,  0,  -11,  -27,  -35
1342470, 1710334574, "2024/3/13 12:56:14",  6,  -57,  1005,  0,  0,  -1,  -10,  -27,  -35
1342670, 1710334574, "2024/3/13 12:56:14",  5,  -60,  1010,  0,  0,  0,  -10,  -26,  -35
1342870, 1710334574, "2024/3/13 12:56:14",  8,  -57,  1004,  0,  0,  -1,  -10,  -26,  -37
1343070, 1710334574, "2024/3/13 12:56:14",  3,  -58,  1000,  0,  -1,  0,  -10,  -27,  -36
1343270, 1710334575, "2024/3/13 12:56:15",  0,  -56,  1004,  0,  0,  -1,  -11,  -25,  -37
1343470, 1710334575, "2024/3/13 12:56:15",  4,  -60,  1000,  0,  0,  -1,  -10,  -26,  -35
1343670, 1710334575, "2024/3/13 12:56:15",  5,  -61,  1005,  0,  0,  -1,  -10,  -24,  -36
1343870, 1710334575, "2024/3/13 12:56:15",  6,  -58,  1005,  0,  0,  0,  -11,  -27,  -36
1344070, 1710334575, "2024/3/13 12:56:15",  3,  -57,  999,  0,  0,  -1,  -11,  -25,  -36
1344270, 1710334576, "2024/3/13 12:56:16",  9,  -62,  1007,  0,  0,  -1,  -11,  -26,  -36
1344470, 1710334576, "2024/3/13 12:56:16",  4,  -62,  1000,  0,  0,  -1,  -11,  -28,  -35
1344670, 1710334576, "2024/3/13 12:56:16",  1,  -60,  1002,  0,  0,  -1,  -10,  -26,  -37
1344870, 1710334576, "2024/3/13 12:56:16",  8,  -54,  1001,  0,  0,  0,  -12,  -25,  -36
1345070, 1710334576, "2024/3/13 12:56:16",  9,  -61,  1008,  0,  0,  0,  -11,  -26,  -36
1345270, 1710334577, "2024/3/13 12:56:17",  5,  -53,  1002,  0,  0,  0,  -11,  -26,  -35
1345470, 1710334577, "2024/3/13 12:56:17",  6,  -55,  1004,  0,  0,  -1,  -11,  -27,  -35
1345670, 1710334577, "2024/3/13 12:56:17",  5,  -59,  1006,  0,  -1,  -1,  -11,  -25,  -37
1345870, 1710334577, "2024/3/13 12:56:17",  15,  -57,  1004,  0,  0,  -1,  -10,  -26,  -36
1346070, 1710334577, "2024/3/13 12:56:17",  7,  -51,  1004,  0,  0,  -1,  -11,  -26,  -36
1346270, 1710334578, "2024/3/13 12:56:18",  5,  -62,  1002,  0,  0,  -1,  -11,  -27,  -35
1346470, 1710334578, "2024/3/13 12:56:18",  6,  -60,  1005,  0,  0,  -1,  -11,  -25,  -36
1346670, 1710334578, "2024/3/13 12:56:18",  3,  -53,  1002,  0,  0,  0,  -12,  -25,  -36
1346870, 1710334578, "2024/3/13 12:56:18",  6,  -59,  1005,  0,  0,  -1,  -10,  -26,  -36
1347070, 1710334578, "2024/3/13 12:56:18",  9,  -52,  1006,  0,  -1,  -1,  -11,  -25,  -35
1347270, 1710334579, "2024/3/13 12:56:19",  8,  -58,  1006,  0,  0,  -1,  -11,  -26,  -35
1347470, 1710334579, "2024/3/13 12:56:19",  8,  -61,  1005,  0,  0,  -1,  -10,  -25,  -37
1347670, 1710334579, "2024/3/13 12:56:19",  4,  -69,  1001,  0,  -1,  -1,  -12,  -25,  -37
1347870, 1710334579, "2024/3/13 12:56:19",  18,  -60,  1013,  0,  0,  -1,  -11,  -27,  -37
1348070, 1710334579, "2024/3/13 12:56:19",  14,  -58,  1007,  0,  0,  0,  -10,  -25,  -36
1348270, 1710334580, "2024/3/13 12:56:20",  7,  -57,  1004,  0,  0,  -1,  -11,  -25,  -36
1348470, 1710334580, "2024/3/13 12:56:20",  9,  -63,  1001,  0,  0,  0,  -11,  -26,  -37
1348670, 1710334580, "2024/3/13 12:56:20",  8,  -54,  1004,  0,  0,  -1,  -12,  -25,  -37
1348870, 1710334580, "2024/3/13 12:56:20",  9,  -59,  1003,  0,  0,  -1,  -10,  -26,  -36
1349070, 1710334580, "2024/3/13 12:56:20",  8,  -59,  1005,  0,  0,  0,  -10,  -26,  -36
1349270, 1710334581, "2024/3/13 12:56:21",  6,  -58,  1002,  0,  0,  -1,  -12,  -27,  -35
1349470, 1710334581, "2024/3/13 12:56:21",  7,  -60,  1008,  0,  0,  -1,  -11,  -26,  -36
1349670, 1710334581, "2024/3/13 12:56:21",  3,  -63,  1008,  0,  0,  -1,  -11,  -26,  -36
1349870, 1710334581, "2024/3/13 12:56:21",  0,  -66,  1001,  0,  0,  -1,  -11,  -28,  -35
1350070, 1710334581, "2024/3/13 12:56:21",  8,  -56,  1003,  0,  -1,  -1,  -11,  -27,  -36
1350270, 1710334582, "2024/3/13 12:56:22",  7,  -55,  1005,  0,  0,  0,  -11,  -27,  -36
1350470, 1710334582, "2024/3/13 12:56:22",  7,  -59,  1002,  0,  0,  0,  -12,  -28,  -36
1350670, 1710334582, "2024/3/13 12:56:22",  2,  -57,  1003,  0,  -1,  -1,  -11,  -27,  -36
1350870, 1710334582, "2024/3/13 12:56:22",  4,  -60,  1004,  0,  0,  -1,  -12,  -26,  -35
1351070, 1710334582, "2024/3/13 12:56:22",  5,  -58,  1004,  0,  0,  0,  -10,  -27,  -36
1351270, 1710334583, "2024/3/13 12:56:23",  4,  -55,  1005,  0,  0,  -1,  -11,  -26,  -37
1351470, 1710334583, "2024/3/13 12:56:23",  10,  -53,  1002,  0,  -1,  -1,  -11,  -26,  -37
1351670, 1710334583, "2024/3/13 12:56:23",  3,  -58,  1003,  0,  0,  -1,  -12,  -25,  -37
1351870, 1710334583, "2024/3/13 12:56:23",  6,  -58,  1005,  0,  -1,  -1,  -12,  -27,  -36
1352070, 1710334583, "2024/3/13 12:56:23",  3,  -60,  1003,  0,  -1,  -1,  -11,  -29,  -36
1352270, 1710334584, "2024/3/13 12:56:24",  8,  -58,  1007,  0,  -1,  0,  -10,  -26,  -36
1352470, 1710334584, "2024/3/13 12:56:24",  9,  -56,  1004,  0,  0,  0,  -11,  -28,  -35
1352670, 1710334584, "2024/3/13 12:56:24",  3,  -57,  1005,  0,  0,  -1,  -11,  -26,  -37
1352870, 1710334584, "2024/3/13 12:56:24",  4,  -58,  1007,  0,  -1,  -1,  -11,  -26,  -35
1353070, 1710334584, "2024/3/13 12:56:24",  6,  -59,  1003,  0,  0,  0,  -11,  -25,  -36
1353270, 1710334585, "2024/3/13 12:56:25",  9,  -57,  1005,  0,  0,  -1,  -12,  -27,  -36
1353470, 1710334585, "2024/3/13 12:56:25",  4,  -61,  1004,  0,  0,  -1,  -10,  -27,  -36
1353670, 1710334585, "2024/3/13 12:56:25",  8,  -60,  1004,  0,  0,  -1,  -11,  -25,  -36
1353870, 1710334585, "2024/3/13 12:56:25",  7,  -54,  1004,  0,  0,  -1,  -12,  -27,  -34
1354070, 1710334585, "2024/3/13 12:56:25",  4,  -54,  999,  0,  0,  -1,  -12,  -25,  -37
1354270, 1710334586, "2024/3/13 12:56:26",  4,  -61,  1005,  0,  0,  -1,  -11,  -25,  -37
1354470, 1710334586, "2024/3/13 12:56:26",  2,  -57,  1007,  0,  0,  0,  -10,  -24,  -35
1354670, 1710334586, "2024/3/13 12:56:26",  6,  -54,  1005,  0,  0,  0,  -12,  -27,  -36
1354870, 1710334586, "2024/3/13 12:56:26",  6,  -63,  1002,  0,  0,  -1,  -11,  -26,  -36
1355070, 1710334586, "2024/3/13 12:56:26",  4,  -55,  1002,  0,  0,  -1,  -12,  -26,  -36
1355270, 1710334587, "2024/3/13 12:56:27",  8,  -57,  1001,  0,  0,  -1,  -11,  -25,  -36
1355470, 1710334587, "2024/3/13 12:56:27",  6,  -58,  1005,  0,  0,  0,  -12,  -25,  -36
1355670, 1710334587, "2024/3/13 12:56:27",  2,  -54,  1000,  0,  0,  -1,  -10,  -27,  -36
1355870, 1710334587, "2024/3/13 12:56:27",  9,  -58,  1004,  0,  0,  0,  -10,  -26,  -35
1356070, 1710334587, "2024/3/13 12:56:27",  5,  -57,  1005,  0,  -1,  -1,  -11,  -27,  -35
1356270, 1710334588, "2024/3/13 12:56:28",  7,  -56,  1009,  0,  0,  -1,  -12,  -28,  -35
1356470, 1710334588, "2024/3/13 12:56:28",  4,  -54,  1004,  0,  0,  0,  -12,  -27,  -36
1356670, 1710334588, "2024/3/13 12:56:28",  3,  -52,  1001,  0,  0,  -1,  -11,  -26,  -35
1356870, 1710334588, "2024/3/13 12:56:28",  0,  -59,  1006,  0,  0,  0,  -11,  -24,  -36
1357070, 1710334588, "2024/3/13 12:56:28",  5,  -57,  1004,  0,  0,  0,  -12,  -27,  -35
1357270, 1710334589, "2024/3/13 12:56:29",  6,  -59,  1002,  0,  0,  0,  -12,  -27,  -36
1357470, 1710334589, "2024/3/13 12:56:29",  2,  -62,  1007,  0,  0,  0,  -11,  -25,  -35
1357670, 1710334589, "2024/3/13 12:56:29",  2,  -51,  1001,  0,  0,  -1,  -11,  -25,  -35
1357870, 1710334589, "2024/3/13 12:56:29",  6,  -55,  1004,  0,  0,  -1,  -11,  -26,  -35
1358070, 1710334589, "2024/3/13 12:56:29",  9,  -52,  1000,  0,  0,  0,  -11,  -25,  -36
1358270, 1710334590, "2024/3/13 12:56:30",  2,  -56,  1001,  0,  0,  -1,  -11,  -27,  -36
1358470, 1710334590, "2024/3/13 12:56:30",  0,  -58,  1003,  0,  0,  0,  -11,  -27,  -36
1358670, 1710334590, "2024/3/13 12:56:30",  5,  -60,  1005,  0,  -1,  -1,  -12,  -27,  -36
1358870, 1710334590, "2024/3/13 12:56:30",  5,  -56,  1001,  0,  0,  -1,  -11,  -26,  -36
1359070, 1710334590, "2024/3/13 12:56:30",  6,  -58,  1008,  0,  0,  -1,  -11,  -27,  -36
1359270, 1710334591, "2024/3/13 12:56:31",  5,  -60,  1002,  0,  0,  0,  -11,  -26,  -36
1359470, 1710334591, "2024/3/13 12:56:31",  2,  -61,  1004,  0,  0,  -1,  -11,  -27,  -35
1359670, 1710334591, "2024/3/13 12:56:31",  4,  -57,  1001,  0,  0,  -1,  -11,  -27,  -35
1359870, 1710334591, "2024/3/13 12:56:31",  5,  -55,  1003,  0,  0,  -1,  -9,  -25,  -36
1360070, 1710334591, "2024/3/13 12:56:31",  0,  -59,  1001,  0,  0,  -1,  -12,  -26,  -35
1360270, 1710334592, "2024/3/13 12:56:32",  2,  -60,  1004,  0,  0,  -1,  -11,  -26,  -36
1360470, 1710334592, "2024/3/13 12:56:32",  1,  -52,  1002,  0,  0,  -1,  -12,  -25,  -37
1360670, 1710334592, "2024/3/13 12:56:32",  3,  -59,  1002,  0,  0,  -1,  -10,  -26,  -35
1360870, 1710334592, "2024/3/13 12:56:32",  5,  -59,  1003,  0,  0,  0,  -11,  -26,  -36
1361070, 1710334592, "2024/3/13 12:56:32",  7,  -60,  1003,  0,  0,  -1,  -11,  -26,  -35
1361270, 1710334593, "2024/3/13 12:56:33",  1,  -58,  1005,  0,  0,  -1,  -12,  -26,  -34
1361470, 1710334593, "2024/3/13 12:56:33",  7,  -61,  1004,  0,  -1,  -1,  -12,  -26,  -36
1361670, 1710334593, "2024/3/13 12:56:33",  7,  -51,  1001,  0,  0,  0,  -11,  -26,  -35
1361870, 1710334593, "2024/3/13 12:56:33",  8,  -55,  1003,  0,  0,  -1,  -9,  -28,  -36
1362070, 1710334593, "2024/3/13 12:56:33",  3,  -60,  1007,  0,  0,  -1,  -11,  -27,  -35
1362270, 1710334594, "2024/3/13 12:56:34",  6,  -62,  1000,  0,  0,  0,  -11,  -27,  -36
1362470, 1710334594, "2024/3/13 12:56:34",  6,  -59,  1005,  0,  0,  -1,  -10,  -28,  -35
1362670, 1710334594, "2024/3/13 12:56:34",  7,  -58,  1003,  0,  -1,  -1,  -12,  -27,  -36
1362870, 1710334594, "2024/3/13 12:56:34",  4,  -55,  1000,  0,  0,  -1,  -11,  -26,  -36
1363070, 1710334594, "2024/3/13 12:56:34",  4,  -54,  1004,  0,  0,  0,  -13,  -27,  -35
1363270, 1710334595, "2024/3/13 12:56:35",  3,  -55,  1002,  0,  0,  -1,  -11,  -25,  -36
1363470, 1710334595, "2024/3/13 12:56:35",  8,  -57,  1004,  0,  0,  -1,  -11,  -27,  -36
1363670, 1710334595, "2024/3/13 12:56:35",  1,  -56,  1000,  0,  0,  0,  -11,  -28,  -36
1363870, 1710334595, "2024/3/13 12:56:35",  4,  -60,  1001,  0,  0,  -1,  -11,  -26,  -35
1364070, 1710334595, "2024/3/13 12:56:35",  7,  -59,  1003,  0,  -1,  -1,  -11,  -27,  -36
1364270, 1710334596, "2024/3/13 12:56:36",  6,  -59,  1006,  0,  0,  -1,  -12,  -26,  -38
1364470, 1710334596, "2024/3/13 12:56:36",  4,  -57,  1003,  0,  0,  -1,  -11,  -28,  -34
1364670, 1710334596, "2024/3/13 12:56:36",  6,  -57,  1006,  0,  0,  0,  -13,  -27,  -38
1364870, 1710334596, "2024/3/13 12:56:36",  8,  -63,  1003,  0,  0,  0,  -11,  -26,  -35
1365070, 1710334596, "2024/3/13 12:56:36",  8,  -61,  1000,  0,  0,  -1,  -12,  -26,  -36
1365270, 1710334597, "2024/3/13 12:56:37",  5,  -59,  1003,  0,  -1,  0,  -11,  -27,  -36
1365470, 1710334597, "2024/3/13 12:56:37",  8,  -58,  1007,  0,  0,  -1,  -11,  -26,  -35
1365670, 1710334597, "2024/3/13 12:56:37",  3,  -61,  1002,  0,  -1,  -1,  -12,  -27,  -36
1365870, 1710334597, "2024/3/13 12:56:37",  2,  -52,  1003,  0,  0,  -1,  -10,  -27,  -36
1366070, 1710334597, "2024/3/13 12:56:37",  2,  -59,  1006,  0,  0,  -1,  -12,  -27,  -36
1366270, 1710334598, "2024/3/13 12:56:38",  3,  -56,  1004,  0,  0,  -1,  -11,  -25,  -35
1366470, 1710334598, "2024/3/13 12:56:38",  3,  -58,  1001,  0,  0,  -1,  -10,  -27,  -36
1366670, 1710334598, "2024/3/13 12:56:38",  4,  -56,  1004,  0,  0,  -1,  -10,  -26,  -36
1366870, 1710334598, "2024/3/13 12:56:38",  4,  -58,  1003,  0,  0,  -1,  -13,  -25,  -37
1367070, 1710334598, "2024/3/13 12:56:38",  5,  -57,  1002,  0,  0,  0,  -11,  -26,  -35
1367270, 1710334599, "2024/3/13 12:56:39",  7,  -62,  1000,  0,  0,  0,  -11,  -26,  -35
1367470, 1710334599, "2024/3/13 12:56:39",  5,  -53,  1002,  0,  0,  -1,  -12,  -28,  -35
1367670, 1710334599, "2024/3/13 12:56:39",  0,  -58,  1004,  0,  0,  -1,  -11,  -27,  -36
1367870, 1710334599, "2024/3/13 12:56:39",  8,  -59,  1003,  0,  -1,  -1,  -12,  -27,  -36
1368070, 1710334599, "2024/3/13 12:56:39",  6,  -58,  1006,  0,  0,  0,  -11,  -26,  -37
1368270, 1710334600, "2024/3/13 12:56:40",  1,  -59,  1005,  0,  0,  -1,  -11,  -26,  -36
1368470, 1710334600, "2024/3/13 12:56:40",  6,  -60,  1003,  0,  0,  -1,  -9,  -27,  -36
1368670, 1710334600, "2024/3/13 12:56:40",  3,  -57,  1000,  0,  0,  0,  -12,  -26,  -35
1368870, 1710334600, "2024/3/13 12:56:40",  -3,  -56,  1003,  0,  -1,  -1,  -12,  -28,  -37
1369070, 1710334600, "2024/3/13 12:56:40",  4,  -62,  1004,  0,  0,  0,  -11,  -27,  -35
1369270, 1710334601, "2024/3/13 12:56:41",  6,  -53,  1002,  0,  0,  -1,  -9,  -27,  -36
1369470, 1710334601, "2024/3/13 12:56:41",  3,  -56,  1002,  0,  0,  -1,  -10,  -25,  -35
1369670, 1710334601, "2024/3/13 12:56:41",  7,  -58,  1003,  0,  0,  -1,  -12,  -26,  -37
1369870, 1710334601, "2024/3/13 12:56:41",  9,  -62,  1005,  0,  0,  -1,  -10,  -28,  -36
1370070, 1710334601, "2024/3/13 12:56:41",  2,  -65,  1001,  0,  0,  -1,  -11,  -26,  -36
1370270, 1710334602, "2024/3/13 12:56:42",  6,  -61,  1000,  0,  0,  0,  -11,  -25,  -37
1370470, 1710334602, "2024/3/13 12:56:42",  6,  -62,  1009,  0,  0,  0,  -11,  -27,  -36
1370670, 1710334602, "2024/3/13 12:56:42",  4,  -60,  1004,  0,  0,  0,  -10,  -26,  -36
1370870, 1710334602, "2024/3/13 12:56:42",  5,  -64,  1001,  0,  0,  -1,  -12,  -26,  -36
1371070, 1710334602, "2024/3/13 12:56:42",  5,  -54,  1003,  0,  0,  -1,  -11,  -26,  -36
1371270, 1710334603, "2024/3/13 12:56:43",  5,  -59,  1000,  0,  0,  0,  -10,  -25,  -36
1371470, 1710334603, "2024/3/13 12:56:43",  0,  -58,  1002,  0,  0,  -1,  -10,  -27,  -34
1371670, 1710334603, "2024/3/13 12:56:43",  6,  -59,  1005,  0,  0,  0,  -10,  -26,  -37
1371870, 1710334603, "2024/3/13 12:56:43",  3,  -61,  1004,  0,  0,  -1,  -10,  -25,  -35
1372070, 1710334603, "2024/3/13 12:56:43",  4,  -58,  1003,  0,  0,  -1,  -12,  -26,  -34
1372270, 1710334604, "2024/3/13 12:56:44",  5,  -62,  1000,  0,  0,  -1,  -10,  -28,  -36
1372470, 1710334604, "2024/3/13 12:56:44",  7,  -56,  1005,  0,  0,  -1,  -10,  -27,  -36
1372670, 1710334604, "2024/3/13 12:56:44",  6,  -55,  1005,  0,  0,  -1,  -10,  -27,  -37
1372870, 1710334604, "2024/3/13 12:56:44",  4,  -59,  1002,  0,  0,  -1,  -10,  -25,  -36
1373070, 1710334604, "2024/3/13 12:56:44",  6,  -55,  1005,  0,  0,  0,  -11,  -27,  -36
1373270, 1710334605, "2024/3/13 12:56:45",  3,  -54,  1004,  0,  0,  -1,  -10,  -27,  -35
1373470, 1710334605, "2024/3/13 12:56:45",  2,  -61,  1005,  0,  -1,  -1,  -12,  -26,  -35
1373670, 1710334605, "2024/3/13 12:56:45",  0,  -59,  1003,  0,  -1,  -1,  -12,  -26,  -35
1373870, 1710334605, "2024/3/13 12:56:45",  4,  -56,  1005,  0,  0,  -1,  -10,  -26,  -35
1374070, 1710334605, "2024/3/13 12:56:45",  10,  -60,  1002,  0,  0,  -1,  -11,  -26,  -36
1374270, 1710334606, "2024/3/13 12:56:46",  6,  -59,  1007,  0,  0,  -1,  -11,  -26,  -36
1374470, 1710334606, "2024/3/13 12:56:46",  6,  -58,  1007,  0,  0,  -1,  -10,  -27,  -35
1374670, 1710334606, "2024/3/13 12:56:46",  5,  -58,  1006,  0,  -1,  0,  -10,  -26,  -37
1374870, 1710334606, "2024/3/13 12:56:46",  6,  -65,  1004,  0,  -1,  -1,  -12,  -26,  -36
1375070, 1710334606, "2024/3/13 12:56:46",  0,  -56,  1000,  0,  0,  -1,  -11,  -25,  -34
1375270, 1710334607, "2024/3/13 12:56:47",  3,  -55,  1005,  0,  0,  -1,  -11,  -27,  -35
1375470, 1710334607, "2024/3/13 12:56:47",  5,  -58,  1002,  0,  0,  0,  -10,  -26,  -35
1375670, 1710334607, "2024/3/13 12:56:47",  5,  -56,  1003,  0,  0,  -1,  -12,  -25,  -36
1375870, 1710334607, "2024/3/13 12:56:47",  2,  -56,  1002,  0,  -1,  -1,  -12,  -26,  -37
1376070, 1710334607, "2024/3/13 12:56:47",  6,  -56,  1003,  0,  0,  0,  -10,  -26,  -36
1376270, 1710334608, "2024/3/13 12:56:48",  5,  -58,  1003,  0,  0,  -1,  -11,  -25,  -36
1376470, 1710334608, "2024/3/13 12:56:48",  5,  -59,  1007,  0,  0,  0,  -12,  -27,  -36
1376670, 1710334608, "2024/3/13 12:56:48",  8,  -61,  1004,  0,  0,  -1,  -12,  -26,  -36
1376870, 1710334608, "2024/3/13 12:56:48",  2,  -54,  1002,  0,  0,  0,  -12,  -26,  -37
1377070, 1710334608, "2024/3/13 12:56:48",  6,  -57,  1004,  0,  0,  -1,  -12,  -27,  -36
1377270, 1710334609, "2024/3/13 12:56:49",  6,  -57,  1005,  0,  0,  0,  -10,  -26,  -36
1377470, 1710334609, "2024/3/13 12:56:49",  3,  -57,  1002,  0,  0,  0,  -11,  -26,  -36
1377670, 1710334609, "2024/3/13 12:56:49",  5,  -61,  1007,  0,  0,  -1,  -10,  -27,  -37
1377870, 1710334609, "2024/3/13 12:56:49",  4,  -55,  1004,  0,  0,  -1,  -11,  -26,  -36
1378070, 1710334609, "2024/3/13 12:56:49",  6,  -51,  1003,  0,  0,  -1,  -12,  -27,  -36
1378270, 1710334610, "2024/3/13 12:56:50",  1,  -55,  1004,  0,  0,  0,  -11,  -26,  -36
1378470, 1710334610, "2024/3/13 12:56:50",  6,  -56,  1000,  0,  0,  -1,  -12,  -25,  -34
1378670, 1710334610, "2024/3/13 12:56:50",  5,  -60,  1000,  0,  0,  -1,  -10,  -26,  -35
1378870, 1710334610, "2024/3/13 12:56:50",  7,  -53,  1002,  0,  0,  -1,  -11,  -25,  -36
1379070, 1710334610, "2024/3/13 12:56:50",  5,  -59,  1005,  0,  0,  -1,  -10,  -27,  -35
1379270, 1710334611, "2024/3/13 12:56:51",  4,  -57,  1005,  0,  0,  0,  -10,  -27,  -36
1379470, 1710334611, "2024/3/13 12:56:51",  4,  -54,  1001,  0,  0,  0,  -11,  -26,  -36
1379670, 1710334611, "2024/3/13 12:56:51",  5,  -55,  1002,  0,  0,  -1,  -11,  -25,  -37
1379870, 1710334611, "2024/3/13 12:56:51",  9,  -56,  1002,  0,  0,  0,  -11,  -26,  -36
1380070, 1710334611, "2024/3/13 12:56:51",  0,  -56,  1003,  0,  0,  -1,  -11,  -27,  -36
1380270, 1710334612, "2024/3/13 12:56:52",  3,  -62,  1003,  0,  0,  -1,  -10,  -27,  -34
1380470, 1710334612, "2024/3/13 12:56:52",  7,  -61,  1004,  0,  0,  -1,  -10,  -26,  -35
1380670, 1710334612, "2024/3/13 12:56:52",  3,  -55,  1003,  0,  0,  -1,  -11,  -25,  -34
1380870, 1710334612, "2024/3/13 12:56:52",  8,  -64,  1003,  0,  0,  -1,  -12,  -27,  -36
1381070, 1710334612, "2024/3/13 12:56:52",  4,  -58,  1001,  0,  0,  0,  -11,  -26,  -37
1381270, 1710334613, "2024/3/13 12:56:53",  6,  -59,  1001,  0,  -1,  -1,  -12,  -26,  -36
1381470, 1710334613, "2024/3/13 12:56:53",  -1,  -58,  1004,  0,  -1,  -1,  -12,  -26,  -36
1381670, 1710334613, "2024/3/13 12:56:53",  7,  -57,  1002,  0,  -1,  -1,  -11,  -26,  -37
1381870, 1710334613, "2024/3/13 12:56:53",  5,  -62,  1001,  0,  0,  -1,  -11,  -26,  -37
1382070, 1710334613, "2024/3/13 12:56:53",  0,  -62,  1002,  0,  -1,  -1,  -10,  -27,  -36
1382270, 1710334614, "2024/3/13 12:56:54",  8,  -61,  1006,  0,  0,  -1,  -11,  -25,  -35
1382470, 1710334614, "2024/3/13 12:56:54",  8,  -64,  1003,  0,  -1,  -1,  -10,  -25,  -36
1382670, 1710334614, "2024/3/13 12:56:54",  6,  -55,  1006,  0,  -1,  0,  -12,  -26,  -36
1382870, 1710334614, "2024/3/13 12:56:54",  6,  -57,  1006,  0,  0,  -1,  -12,  -25,  -35
1383070, 1710334614, "2024/3/13 12:56:54",  8,  -63,  1002,  0,  0,  -1,  -9,  -27,  -35
1383270, 1710334615, "2024/3/13 12:56:55",  2,  -55,  1001,  0,  0,  -1,  -10,  -26,  -35
1383470, 1710334615, "2024/3/13 12:56:55",  8,  -59,  1003,  0,  0,  -1,  -11,  -26,  -36
1383670, 1710334615, "2024/3/13 12:56:55",  4,  -54,  1004,  0,  0,  0,  -10,  -25,  -37
1383870, 1710334615, "2024/3/13 12:56:55",  1,  -62,  1002,  0,  0,  -1,  -9,  -26,  -35
1384070, 1710334615, "2024/3/13 12:56:55",  3,  -60,  1000,  0,  -1,  -1,  -11,  -25,  -37
1384270, 1710334616, "2024/3/13 12:56:56",  6,  -57,  1008,  0,  0,  -1,  -10,  -27,  -35
1384470, 1710334616, "2024/3/13 12:56:56",  2,  -58,  1001,  0,  0,  -1,  -11,  -25,  -36
1384670, 1710334616, "2024/3/13 12:56:56",  7,  -53,  1005,  0,  -1,  0,  -10,  -26,  -34
1384870, 1710334616, "2024/3/13 12:56:56",  6,  -59,  1002,  0,  0,  0,  -11,  -27,  -35
1385070, 1710334616, "2024/3/13 12:56:56",  5,  -58,  1003,  0,  0,  -1,  -11,  -27,  -36
1385270, 1710334617, "2024/3/13 12:56:57",  8,  -61,  1001,  0,  0,  -1,  -12,  -27,  -36
1385470, 1710334617, "2024/3/13 12:56:57",  9,  -55,  1002,  0,  0,  -1,  -12,  -25,  -36
1385670, 1710334617, "2024/3/13 12:56:57",  7,  -62,  1004,  0,  -1,  -1,  -11,  -26,  -36
1385870, 1710334617, "2024/3/13 12:56:57",  4,  -53,  1004,  0,  0,  0,  -10,  -26,  -35
1386070, 1710334617, "2024/3/13 12:56:57",  3,  -55,  1002,  0,  0,  -1,  -11,  -25,  -34
1386270, 1710334618, "2024/3/13 12:56:58",  8,  -60,  1009,  0,  -1,  -1,  -10,  -27,  -36
1386470, 1710334618, "2024/3/13 12:56:58",  6,  -57,  1002,  0,  0,  0,  -11,  -27,  -36
1386670, 1710334618, "2024/3/13 12:56:58",  6,  -61,  1001,  0,  0,  -1,  -11,  -26,  -36
1386870, 1710334618, "2024/3/13 12:56:58",  6,  -56,  1005,  0,  0,  -1,  -12,  -26,  -35
1387070, 1710334618, "2024/3/13 12:56:58",  7,  -57,  1006,  0,  0,  -1,  -11,  -26,  -36
1387270, 1710334619, "2024/3/13 12:56:59",  5,  -63,  1005,  0,  -1,  -1,  -11,  -26,  -35
1387470, 1710334619, "2024/3/13 12:56:59",  0,  -57,  1007,  0,  0,  0,  -11,  -26,  -35
1387670, 1710334619, "2024/3/13 12:56:59",  4,  -53,  1005,  0,  0,  -1,  -12,  -27,  -36
1387870, 1710334619, "2024/3/13 12:56:59",  6,  -59,  1003,  0,  0,  -1,  -11,  -26,  -35
1388070, 1710334619, "2024/3/13 12:56:59",  8,  -59,  1000,  0,  -1,  0,  -10,  -27,  -36
1388270, 1710334620, "2024/3/13 12:57:0",  7,  -54,  1005,  0,  0,  -1,  -10,  -26,  -36
1388470, 1710334620, "2024/3/13 12:57:0",  13,  -57,  1003,  0,  0,  0,  -11,  -26,  -36
1388670, 1710334620, "2024/3/13 12:57:0",  15,  -57,  1004,  1,  0,  -1,  -10,  -26,  -36
1388870, 1710334620, "2024/3/13 12:57:0",  12,  -55,  1005,  0,  0,  -1,  -11,  -27,  -36
1389070, 1710334620, "2024/3/13 12:57:0",  1,  -58,  1005,  0,  0,  -1,  -10,  -25,  -36
1389270, 1710334621, "2024/3/13 12:57:1",  6,  -55,  1003,  0,  -1,  -1,  -11,  -27,  -37
1389470, 1710334621, "2024/3/13 12:57:1",  6,  -62,  1004,  0,  0,  0,  -11,  -27,  -36
1389670, 1710334621, "2024/3/13 12:57:1",  4,  -62,  1004,  0,  -1,  0,  -12,  -26,  -35
1389870, 1710334621, "2024/3/13 12:57:1",  7,  -63,  1004,  0,  0,  0,  -12,  -27,  -36
1390070, 1710334621, "2024/3/13 12:57:1",  2,  -54,  1005,  0,  0,  -1,  -11,  -28,  -35
1390270, 1710334622, "2024/3/13 12:57:2",  6,  -61,  1002,  0,  0,  0,  -13,  -26,  -36
1390470, 1710334622, "2024/3/13 12:57:2",  6,  -53,  1004,  0,  0,  -1,  -12,  -25,  -35
1390670, 1710334622, "2024/3/13 12:57:2",  6,  -55,  1007,  0,  0,  -1,  -9,  -25,  -36
1390870, 1710334622, "2024/3/13 12:57:2",  2,  -61,  1003,  0,  0,  0,  -12,  -26,  -37
1391070, 1710334622, "2024/3/13 12:57:2",  3,  -62,  1006,  0,  0,  -1,  -11,  -26,  -36
1391270, 1710334623, "2024/3/13 12:57:3",  7,  -58,  1005,  0,  0,  0,  -12,  -27,  -35
1391470, 1710334623, "2024/3/13 12:57:3",  7,  -62,  1004,  0,  0,  0,  -10,  -27,  -35
1391670, 1710334623, "2024/3/13 12:57:3",  5,  -55,  1004,  0,  0,  -1,  -11,  -25,  -36
1391870, 1710334623, "2024/3/13 12:57:3",  5,  -50,  1002,  0,  0,  -1,  -10,  -26,  -36
1392070, 1710334623, "2024/3/13 12:57:3",  1,  -54,  1002,  0,  0,  -1,  -10,  -27,  -36
1392270, 1710334624, "2024/3/13 12:57:4",  6,  -57,  1002,  0,  0,  -1,  -10,  -27,  -35
1392470, 1710334624, "2024/3/13 12:57:4",  4,  -61,  1001,  0,  0,  -1,  -11,  -26,  -36
1392670, 1710334624, "2024/3/13 12:57:4",  10,  -59,  1004,  0,  0,  -1,  -10,  -27,  -34
1392870, 1710334624, "2024/3/13 12:57:4",  4,  -53,  1003,  0,  0,  -1,  -11,  -26,  -36
1393070, 1710334624, "2024/3/13 12:57:4",  7,  -54,  1002,  0,  0,  -1,  -11,  -25,  -36
1393270, 1710334625, "2024/3/13 12:57:5",  6,  -58,  1005,  0,  0,  0,  -11,  -28,  -35
1393470, 1710334625, "2024/3/13 12:57:5",  3,  -62,  1006,  0,  0,  -1,  -10,  -26,  -36
1393670, 1710334625, "2024/3/13 12:57:5",  1,  -56,  1004,  0,  0,  -1,  -12,  -26,  -37
1393870, 1710334625, "2024/3/13 12:57:5",  3,  -61,  1004,  0,  0,  0,  -10,  -27,  -35
1394070, 1710334625, "2024/3/13 12:57:5",  0,  -54,  1002,  0,  0,  -1,  -12,  -27,  -35
1394270, 1710334626, "2024/3/13 12:57:6",  4,  -59,  1004,  0,  0,  -1,  -11,  -26,  -36
1394470, 1710334626, "2024/3/13 12:57:6",  1,  -61,  1002,  0,  0,  -1,  -11,  -27,  -37
1394670, 1710334626, "2024/3/13 12:57:6",  4,  -60,  996,  0,  -1,  -1,  -10,  -26,  -36
1394870, 1710334626, "2024/3/13 12:57:6",  2,  -53,  1009,  0,  0,  -1,  -12,  -26,  -35
1395070, 1710334626, "2024/3/13 12:57:6",  7,  -52,  1004,  0,  0,  0,  -12,  -26,  -36
1395270, 1710334627, "2024/3/13 12:57:7",  5,  -53,  1002,  0,  0,  -1,  -11,  -27,  -36
1395470, 1710334627, "2024/3/13 12:57:7",  3,  -56,  999,  0,  0,  0,  -10,  -27,  -36
1395670, 1710334627, "2024/3/13 12:57:7",  7,  -55,  1004,  0,  0,  -1,  -10,  -27,  -34
1395870, 1710334627, "2024/3/13 12:57:7",  5,  -53,  1003,  0,  0,  -1,  -12,  -26,  -37
1396070, 1710334627, "2024/3/13 12:57:7",  3,  -59,  1006,  0,  0,  -1,  -12,  -25,  -35
1396270, 1710334628, "2024/3/13 12:57:8",  7,  -62,  1006,  0,  0,  -1,  -12,  -27,  -36
1396470, 1710334628, "2024/3/13 12:57:8",  9,  -61,  1000,  0,  0,  -1,  -12,  -27,  -34
1396670, 1710334628, "2024/3/13 12:57:8",  0,  -55,  1001,  0,  0,  0,  -11,  -26,  -36
1396870, 1710334628, "2024/3/13 12:57:8",  5,  -58,  1002,  0,  0,  -1,  -13,  -24,  -37
1397070, 1710334628, "2024/3/13 12:57:8",  8,  -64,  1004,  0,  0,  -1,  -12,  -26,  -35
1397270, 1710334629, "2024/3/13 12:57:9",  3,  -50,  1000,  0,  -1,  0,  -11,  -26,  -35
1397470, 1710334629, "2024/3/13 12:57:9",  9,  -60,  1005,  0,  0,  0,  -11,  -26,  -36
1397670, 1710334629, "2024/3/13 12:57:9",  10,  -55,  1001,  0,  0,  -1,  -12,  -26,  -36
1397870, 1710334629, "2024/3/13 12:57:9",  5,  -61,  1002,  0,  0,  -1,  -11,  -26,  -36
1398070, 1710334629, "2024/3/13 12:57:9",  9,  -62,  1004,  0,  0,  0,  -11,  -25,  -36
1398270, 1710334630, "2024/3/13 12:57:10",  8,  -56,  1001,  0,  0,  -1,  -11,  -27,  -37
1398470, 1710334630, "2024/3/13 12:57:10",  8,  -53,  1000,  0,  -1,  0,  -13,  -26,  -35
1398670, 1710334630, "2024/3/13 12:57:10",  8,  -61,  1003,  0,  0,  -1,  -12,  -26,  -34
1398870, 1710334630, "2024/3/13 12:57:10",  7,  -61,  1003,  0,  0,  -1,  -11,  -25,  -35
1399070, 1710334630, "2024/3/13 12:57:10",  3,  -53,  1004,  0,  0,  -1,  -10,  -25,  -36
1399270, 1710334631, "2024/3/13 12:57:11",  6,  -60,  1002,  0,  0,  0,  -12,  -25,  -36
1399470, 1710334631, "2024/3/13 12:57:11",  5,  -57,  1004,  0,  -1,  0,  -10,  -27,  -35
1399670, 1710334631, "2024/3/13 12:57:11",  6,  -59,  1003,  0,  0,  -1,  -13,  -26,  -37
1399870, 1710334631, "2024/3/13 12:57:11",  6,  -57,  1000,  0,  0,  0,  -10,  -26,  -37
1400070, 1710334631, "2024/3/13 12:57:11",  2,  -58,  1003,  0,  0,  -1,  -10,  -27,  -36
1400270, 1710334632, "2024/3/13 12:57:12",  4,  -58,  1004,  0,  0,  0,  -12,  -25,  -36
1400470, 1710334632, "2024/3/13 12:57:12",  3,  -59,  1005,  0,  0,  -1,  -10,  -27,  -37
1400670, 1710334632, "2024/3/13 12:57:12",  7,  -58,  1003,  0,  0,  0,  -11,  -27,  -36
1400870, 1710334632, "2024/3/13 12:57:12",  3,  -60,  1004,  0,  0,  -1,  -13,  -26,  -36
1401070, 1710334632, "2024/3/13 12:57:12",  3,  -55,  1005,  0,  0,  -1,  -11,  -26,  -36
1401270, 1710334633, "2024/3/13 12:57:13",  3,  -60,  1000,  0,  0,  -1,  -12,  -26,  -36
1401470, 1710334633, "2024/3/13 12:57:13",  6,  -56,  1002,  0,  0,  -1,  -11,  -27,  -36
1401670, 1710334633, "2024/3/13 12:57:13",  6,  -55,  1001,  0,  0,  -1,  -13,  -25,  -36
1401870, 1710334633, "2024/3/13 12:57:13",  2,  -60,  1003,  0,  0,  0,  -11,  -27,  -36
1402070, 1710334633, "2024/3/13 12:57:13",  6,  -61,  1007,  0,  0,  -1,  -11,  -26,  -36
1402270, 1710334634, "2024/3/13 12:57:14",  0,  -56,  1004,  0,  0,  -1,  -11,  -27,  -36
1402470, 1710334634, "2024/3/13 12:57:14",  2,  -58,  1003,  0,  0,  -1,  -11,  -27,  -37
1402670, 1710334634, "2024/3/13 12:57:14",  6,  -58,  1004,  0,  0,  -1,  -11,  -27,  -36
1402870, 1710334634, "2024/3/13 12:57:14",  3,  -55,  1002,  0,  -1,  0,  -12,  -24,  -38
1403070, 1710334634, "2024/3/13 12:57:14",  2,  -57,  1002,  0,  0,  -1,  -10,  -27,  -36
1403270, 1710334635, "2024/3/13 12:57:15",  3,  -58,  1002,  0,  0,  -1,  -11,  -26,  -36
1403470, 1710334635, "2024/3/13 12:57:15",  3,  -56,  1004,  0,  0,  0,  -11,  -26,  -36
1403670, 1710334635, "2024/3/13 12:57:15",  4,  -57,  1005,  0,  0,  -1,  -11,  -27,  -36
1403870, 1710334635, "2024/3/13 12:57:15",  1,  -63,  1000,  0,  0,  -1,  -12,  -27,  -37
1404070, 1710334635, "2024/3/13 12:57:15",  8,  -54,  1004,  0,  -1,  -1,  -11,  -27,  -36
1404270, 1710334636, "2024/3/13 12:57:16",  5,  -58,  1006,  0,  0,  -1,  -10,  -26,  -37
1404470, 1710334636, "2024/3/13 12:57:16",  6,  -60,  1004,  0,  0,  -1,  -11,  -27,  -36
1404670, 1710334636, "2024/3/13 12:57:16",  8,  -57,  1001,  0,  0,  0,  -11,  -25,  -35
1404870, 1710334636, "2024/3/13 12:57:16",  7,  -59,  1003,  0,  0,  0,  -11,  -27,  -35
1405070, 1710334636, "2024/3/13 12:57:16",  0,  -60,  1004,  0,  -1,  -1,  -11,  -27,  -35
1405270, 1710334637, "2024/3/13 12:57:17",  9,  -60,  1003,  0,  0,  -1,  -11,  -27,  -37
1405470, 1710334637, "2024/3/13 12:57:17",  7,  -57,  1004,  0,  -1,  -1,  -12,  -27,  -36
1405670, 1710334637, "2024/3/13 12:57:17",  1,  -61,  1003,  0,  0,  -1,  -11,  -26,  -35
1405870, 1710334637, "2024/3/13 12:57:17",  4,  -51,  1002,  0,  0,  -1,  -10,  -25,  -36
1406070, 1710334637, "2024/3/13 12:57:17",  3,  -61,  1007,  0,  0,  -1,  -10,  -25,  -36
1406270, 1710334638, "2024/3/13 12:57:18",  5,  -57,  1003,  0,  0,  -1,  -11,  -27,  -36
1406470, 1710334638, "2024/3/13 12:57:18",  5,  -54,  1005,  0,  0,  -1,  -11,  -27,  -37
1406670, 1710334638, "2024/3/13 12:57:18",  6,  -60,  999,  0,  0,  0,  -12,  -27,  -37
1406870, 1710334638, "2024/3/13 12:57:18",  3,  -64,  1005,  0,  0,  0,  -11,  -26,  -38
1407070, 1710334638, "2024/3/13 12:57:18",  -1,  -59,  1005,  0,  0,  0,  -11,  -26,  -37
1407270, 1710334639, "2024/3/13 12:57:19",  4,  -61,  1005,  0,  0,  -1,  -11,  -27,  -36
1407470, 1710334639, "2024/3/13 12:57:19",  7,  -55,  1002,  0,  0,  -1,  -11,  -26,  -34
1407670, 1710334639, "2024/3/13 12:57:19",  4,  -56,  1002,  0,  0,  0,  -12,  -27,  -36
1407870, 1710334639, "2024/3/13 12:57:19",  3,  -54,  1004,  0,  0,  0,  -12,  -27,  -37
1408070, 1710334639, "2024/3/13 12:57:19",  6,  -57,  1004,  0,  0,  -1,  -11,  -27,  -36
1408270, 1710334640, "2024/3/13 12:57:20",  6,  -56,  1001,  0,  0,  -1,  -13,  -26,  -36
1408470, 1710334640, "2024/3/13 12:57:20",  4,  -55,  1003,  0,  0,  0,  -10,  -26,  -37
1408670, 1710334640, "2024/3/13 12:57:20",  3,  -65,  1001,  0,  0,  0,  -10,  -27,  -37
1408870, 1710334640, "2024/3/13 12:57:20",  3,  -56,  1000,  0,  0,  0,  -11,  -25,  -36
1409070, 1710334640, "2024/3/13 12:57:20",  6,  -58,  1003,  0,  0,  0,  -10,  -27,  -37
1409270, 1710334641, "2024/3/13 12:57:21",  5,  -58,  1002,  0,  0,  0,  -10,  -26,  -36
1409470, 1710334641, "2024/3/13 12:57:21",  2,  -58,  1006,  0,  0,  -1,  -11,  -27,  -35
1409670, 1710334641, "2024/3/13 12:57:21",  10,  -63,  1003,  0,  0,  -1,  -12,  -27,  -35
1409870, 1710334641, "2024/3/13 12:57:21",  6,  -57,  1007,  0,  0,  -1,  -11,  -25,  -36
1410070, 1710334641, "2024/3/13 12:57:21",  4,  -61,  1005,  0,  0,  0,  -11,  -27,  -36
1410270, 1710334642, "2024/3/13 12:57:22",  5,  -55,  1003,  0,  0,  -1,  -11,  -27,  -35
1410470, 1710334642, "2024/3/13 12:57:22",  5,  -60,  1006,  0,  0,  -1,  -10,  -27,  -36
1410670, 1710334642, "2024/3/13 12:57:22",  7,  -57,  1009,  0,  -1,  -1,  -11,  -25,  -37
1410870, 1710334642, "2024/3/13 12:57:22",  11,  -62,  1003,  0,  0,  0,  -11,  -27,  -36
1411070, 1710334642, "2024/3/13 12:57:22",  9,  -57,  1001,  0,  0,  0,  -11,  -25,  -34
1411270, 1710334643, "2024/3/13 12:57:23",  3,  -54,  1001,  0,  0,  -1,  -11,  -26,  -36
1411470, 1710334643, "2024/3/13 12:57:23",  7,  -55,  1005,  0,  0,  0,  -12,  -27,  -35
1411670, 1710334643, "2024/3/13 12:57:23",  7,  -64,  1002,  0,  0,  -1,  -12,  -26,  -36
1411870, 1710334643, "2024/3/13 12:57:23",  10,  -59,  1005,  0,  0,  -1,  -11,  -26,  -36
1412070, 1710334643, "2024/3/13 12:57:23",  9,  -56,  1005,  0,  0,  -1,  -11,  -26,  -36
1412270, 1710334644, "2024/3/13 12:57:24",  5,  -55,  1004,  0,  0,  -1,  -10,  -26,  -36
1412470, 1710334644, "2024/3/13 12:57:24",  7,  -57,  996,  0,  0,  -1,  -11,  -27,  -36
1412670, 1710334644, "2024/3/13 12:57:24",  0,  -56,  1004,  0,  0,  0,  -12,  -26,  -35
1412870, 1710334644, "2024/3/13 12:57:24",  4,  -59,  1004,  0,  0,  -1,  -11,  -27,  -36
1413070, 1710334644, "2024/3/13 12:57:24",  3,  -59,  1003,  0,  0,  -1,  -12,  -25,  -35
1413270, 1710334645, "2024/3/13 12:57:25",  5,  -54,  1001,  0,  0,  -1,  -9,  -25,  -36
1413470, 1710334645, "2024/3/13 12:57:25",  6,  -53,  1002,  0,  0,  0,  -12,  -28,  -34
1413670, 1710334645, "2024/3/13 12:57:25",  3,  -58,  1006,  0,  0,  -1,  -11,  -27,  -36
1413870, 1710334645, "2024/3/13 12:57:25",  4,  -58,  1002,  0,  0,  -1,  -11,  -26,  -35
1414070, 1710334645, "2024/3/13 12:57:25",  11,  -59,  1005,  0,  0,  -1,  -10,  -26,  -36
1414270, 1710334646, "2024/3/13 12:57:26",  -1,  -60,  1002,  0,  0,  -1,  -11,  -28,  -34
1414470, 1710334646, "2024/3/13 12:57:26",  2,  -54,  1003,  0,  0,  0,  -12,  -28,  -36
1414670, 1710334646, "2024/3/13 12:57:26",  4,  -58,  1000,  0,  0,  0,  -9,  -27,  -35
1414870, 1710334646, "2024/3/13 12:57:26",  10,  -59,  1000,  0,  0,  -1,  -9,  -27,  -37
1415070, 1710334646, "2024/3/13 12:57:26",  4,  -59,  1002,  0,  0,  -1,  -11,  -26,  -36
1415270, 1710334647, "2024/3/13 12:57:27",  2,  -62,  1002,  0,  0,  0,  -14,  -27,  -35
1415470, 1710334647, "2024/3/13 12:57:27",  3,  -54,  1004,  0,  0,  0,  -12,  -25,  -36
1415670, 1710334647, "2024/3/13 12:57:27",  2,  -60,  1004,  0,  0,  0,  -10,  -25,  -36
1415870, 1710334647, "2024/3/13 12:57:27",  5,  -59,  1004,  0,  0,  0,  -12,  -26,  -36
1416070, 1710334647, "2024/3/13 12:57:27",  5,  -64,  1004,  0,  0,  -1,  -11,  -26,  -37
1416270, 1710334648, "2024/3/13 12:57:28",  8,  -57,  1003,  0,  -1,  -1,  -10,  -25,  -36
1416470, 1710334648, "2024/3/13 12:57:28",  2,  -58,  1005,  0,  0,  -1,  -12,  -25,  -34
1416670, 1710334648, "2024/3/13 12:57:28",  7,  -56,  1004,  0,  0,  -1,  -11,  -27,  -35
1416870, 1710334648, "2024/3/13 12:57:28",  0,  -58,  1008,  0,  0,  -1,  -10,  -27,  -36
1417070, 1710334648, "2024/3/13 12:57:28",  3,  -56,  1012,  0,  0,  0,  -11,  -25,  -36
1417270, 1710334649, "2024/3/13 12:57:29",  4,  -60,  1000,  0,  0,  -1,  -12,  -27,  -37
1417470, 1710334649, "2024/3/13 12:57:29",  -2,  -55,  1003,  0,  0,  -1,  -11,  -26,  -36
1417670, 1710334649, "2024/3/13 12:57:29",  1,  -62,  1003,  0,  0,  -1,  -12,  -27,  -36
1417870, 1710334649, "2024/3/13 12:57:29",  9,  -57,  1006,  0,  0,  0,  -10,  -27,  -35
1418070, 1710334649, "2024/3/13 12:57:29",  3,  -56,  1004,  0,  0,  -1,  -11,  -25,  -36
1418270, 1710334650, "2024/3/13 12:57:30",  2,  -61,  1002,  0,  0,  -1,  -11,  -27,  -36
1418470, 1710334650, "2024/3/13 12:57:30",  4,  -61,  1002,  0,  0,  -1,  -11,  -27,  -36
1418670, 1710334650, "2024/3/13 12:57:30",  8,  -59,  1003,  0,  0,  -1,  -11,  -28,  -36
1418870, 1710334650, "2024/3/13 12:57:30",  5,  -51,  1004,  0,  0,  -1,  -9,  -25,  -34
1419070, 1710334650, "2024/3/13 12:57:30",  4,  -57,  1005,  0,  0,  -1,  -10,  -25,  -37
1419270, 1710334651, "2024/3/13 12:57:31",  5,  -60,  1004,  0,  0,  -1,  -12,  -26,  -35
1419470, 1710334651, "2024/3/13 12:57:31",  4,  -57,  998,  0,  0,  -1,  -9,  -28,  -37
1419670, 1710334651, "2024/3/13 12:57:31",  1,  -64,  1002,  0,  0,  0,  -10,  -25,  -36
1419870, 1710334651, "2024/3/13 12:57:31",  3,  -59,  999,  0,  0,  -1,  -10,  -26,  -36
1420070, 1710334651, "2024/3/13 12:57:31",  5,  -57,  1006,  0,  0,  0,  -10,  -26,  -36
1420270, 1710334652, "2024/3/13 12:57:32",  3,  -61,  1006,  0,  0,  -1,  -11,  -27,  -35
1420470, 1710334652, "2024/3/13 12:57:32",  7,  -56,  1004,  0,  0,  -1,  -12,  -26,  -36
1420670, 1710334652, "2024/3/13 12:57:32",  7,  -55,  1003,  0,  0,  0,  -10,  -27,  -35
1420870, 1710334652, "2024/3/13 12:57:32",  2,  -54,  1006,  0,  0,  0,  -12,  -27,  -36
1421070, 1710334652, "2024/3/13 12:57:32",  3,  -57,  1006,  0,  0,  -1,  -10,  -27,  -36
1421270, 1710334653, "2024/3/13 12:57:33",  5,  -58,  1007,  0,  -1,  0,  -10,  -27,  -36
1421470, 1710334653, "2024/3/13 12:57:33",  7,  -57,  1003,  0,  -1,  -1,  -11,  -26,  -36
1421670, 1710334653, "2024/3/13 12:57:33",  5,  -58,  1008,  0,  0,  -1,  -13,  -26,  -37
1421870, 1710334653, "2024/3/13 12:57:33",  6,  -58,  1006,  0,  0,  -1,  -11,  -26,  -36
1422070, 1710334653, "2024/3/13 12:57:33",  0,  -58,  1003,  0,  0,  -1,  -12,  -26,  -34
1422270, 1710334654, "2024/3/13 12:57:34",  4,  -62,  1008,  0,  0,  -1,  -10,  -27,  -37
1422470, 1710334654, "2024/3/13 12:57:34",  8,  -60,  1005,  0,  0,  0,  -11,  -28,  -36
1422670, 1710334654, "2024/3/13 12:57:34",  9,  -58,  1005,  0,  0,  -1,  -12,  -27,  -36
1422870, 1710334654, "2024/3/13 12:57:34",  10,  -60,  1001,  0,  0,  0,  -12,  -27,  -36
1423070, 1710334654, "2024/3/13 12:57:34",  9,  -55,  1003,  0,  0,  -1,  -11,  -27,  -36
1423270, 1710334655, "2024/3/13 12:57:35",  6,  -54,  1004,  0,  0,  0,  -12,  -27,  -36
1423470, 1710334655, "2024/3/13 12:57:35",  6,  -57,  1000,  0,  0,  -1,  -9,  -27,  -36
1423670, 1710334655, "2024/3/13 12:57:35",  4,  -53,  1003,  0,  0,  -1,  -11,  -25,  -36
1423870, 1710334655, "2024/3/13 12:57:35",  15,  -50,  1012,  0,  0,  0,  -11,  -27,  -36
1424070, 1710334655, "2024/3/13 12:57:35",  4,  -51,  1002,  0,  -1,  -1,  -11,  -27,  -35
1424270, 1710334656, "2024/3/13 12:57:36",  8,  -56,  1004,  0,  0,  -1,  -12,  -25,  -36
1424470, 1710334656, "2024/3/13 12:57:36",  5,  -61,  1002,  0,  0,  -1,  -11,  -25,  -36
1424670, 1710334656, "2024/3/13 12:57:36",  11,  -58,  1000,  0,  0,  0,  -10,  -26,  -37
1424870, 1710334656, "2024/3/13 12:57:36",  2,  -57,  1001,  0,  0,  -1,  -9,  -27,  -36
1425070, 1710334656, "2024/3/13 12:57:36",  4,  -58,  1007,  0,  0,  -1,  -11,  -28,  -36
1425270, 1710334657, "2024/3/13 12:57:37",  4,  -57,  1003,  0,  0,  -1,  -11,  -26,  -37
1425470, 1710334657, "2024/3/13 12:57:37",  5,  -59,  1006,  0,  0,  -1,  -11,  -27,  -37
1425670, 1710334657, "2024/3/13 12:57:37",  5,  -63,  1005,  0,  0,  -1,  -11,  -26,  -37
1425870, 1710334657, "2024/3/13 12:57:37",  2,  -59,  1000,  0,  0,  -1,  -10,  -26,  -36
1426070, 1710334657, "2024/3/13 12:57:37",  9,  -54,  1006,  0,  0,  -1,  -12,  -26,  -37
1426270, 1710334658, "2024/3/13 12:57:38",  12,  -58,  1007,  0,  0,  -1,  -11,  -25,  -36
1426470, 1710334658, "2024/3/13 12:57:38",  3,  -58,  1002,  0,  0,  0,  -12,  -26,  -36
1426670, 1710334658, "2024/3/13 12:57:38",  0,  -59,  1004,  0,  0,  0,  -11,  -27,  -35
1426870, 1710334658, "2024/3/13 12:57:38",  9,  -54,  1005,  0,  -1,  -1,  -10,  -27,  -36
1427070, 1710334658, "2024/3/13 12:57:38",  4,  -60,  1000,  0,  0,  -1,  -10,  -28,  -35
1427270, 1710334659, "2024/3/13 12:57:39",  6,  -59,  1004,  0,  0,  0,  -12,  -26,  -36
1427470, 1710334659, "2024/3/13 12:57:39",  5,  -60,  1003,  0,  0,  0,  -11,  -25,  -37
1427670, 1710334659, "2024/3/13 12:57:39",  7,  -58,  1006,  0,  0,  0,  -10,  -25,  -36
1427870, 1710334659, "2024/3/13 12:57:39",  10,  -58,  1000,  0,  0,  -1,  -11,  -26,  -36
1428070, 1710334659, "2024/3/13 12:57:39",  1,  -56,  1002,  0,  0,  -1,  -11,  -27,  -36
1428270, 1710334660, "2024/3/13 12:57:40",  2,  -58,  1003,  0,  0,  -1,  -11,  -25,  -36
1428470, 1710334660, "2024/3/13 12:57:40",  4,  -60,  1004,  0,  0,  -1,  -10,  -25,  -36
1428670, 1710334660, "2024/3/13 12:57:40",  6,  -59,  999,  0,  0,  0,  -12,  -26,  -35
1428870, 1710334660, "2024/3/13 12:57:40",  7,  -51,  1000,  0,  0,  -1,  -12,  -26,  -36
1429070, 1710334660, "2024/3/13 12:57:40",  7,  -56,  1005,  0,  0,  -1,  -10,  -26,  -36
1429270, 1710334661, "2024/3/13 12:57:41",  5,  -55,  1001,  0,  0,  -1,  -11,  -26,  -36
1429470, 1710334661, "2024/3/13 12:57:41",  5,  -56,  1002,  0,  0,  -1,  -11,  -26,  -37
1429670, 1710334661, "2024/3/13 12:57:41",  9,  -56,  1009,  0,  0,  -1,  -11,  -26,  -37
1429870, 1710334661, "2024/3/13 12:57:41",  4,  -56,  1000,  0,  0,  -1,  -13,  -26,  -37
1430070, 1710334661, "2024/3/13 12:57:41",  1,  -59,  1002,  0,  0,  -1,  -11,  -26,  -36
1430270, 1710334662, "2024/3/13 12:57:42",  1,  -55,  1001,  0,  0,  -1,  -12,  -25,  -36
1430470, 1710334662, "2024/3/13 12:57:42",  2,  -57,  1006,  0,  -1,  0,  -10,  -28,  -35
1430670, 1710334662, "2024/3/13 12:57:42",  3,  -55,  1005,  0,  0,  -1,  -11,  -25,  -36
1430870, 1710334662, "2024/3/13 12:57:42",  3,  -64,  1003,  0,  0,  -1,  -11,  -26,  -36
1431070, 1710334662, "2024/3/13 12:57:42",  -4,  -60,  1000,  0,  0,  -1,  -11,  -29,  -35
1431270, 1710334663, "2024/3/13 12:57:43",  7,  -60,  1009,  0,  0,  -1,  -10,  -27,  -35
1431470, 1710334663, "2024/3/13 12:57:43",  5,  -50,  1002,  0,  0,  0,  -11,  -27,  -35
1431670, 1710334663, "2024/3/13 12:57:43",  8,  -54,  1008,  0,  0,  0,  -11,  -26,  -37
1431870, 1710334663, "2024/3/13 12:57:43",  7,  -55,  1002,  0,  0,  -1,  -10,  -26,  -37
1432070, 1710334663, "2024/3/13 12:57:43",  10,  -53,  1003,  0,  0,  -1,  -12,  -26,  -35
1432270, 1710334664, "2024/3/13 12:57:44",  4,  -60,  1007,  0,  0,  -1,  -10,  -27,  -36
1432470, 1710334664, "2024/3/13 12:57:44",  1,  -58,  1007,  0,  -1,  0,  -10,  -27,  -36
1432670, 1710334664, "2024/3/13 12:57:44",  1,  -61,  1000,  0,  -1,  0,  -11,  -25,  -35
1432870, 1710334664, "2024/3/13 12:57:44",  3,  -55,  1004,  0,  0,  0,  -12,  -27,  -35
1433070, 1710334664, "2024/3/13 12:57:44",  7,  -60,  1004,  0,  0,  -1,  -10,  -27,  -37
1433270, 1710334665, "2024/3/13 12:57:45",  1,  -53,  1000,  0,  -1,  -1,  -11,  -27,  -36
1433470, 1710334665, "2024/3/13 12:57:45",  1,  -60,  1002,  0,  0,  0,  -10,  -27,  -36
1433670, 1710334665, "2024/3/13 12:57:45",  8,  -55,  1005,  0,  -1,  -1,  -11,  -25,  -36
1433870, 1710334665, "2024/3/13 12:57:45",  9,  -49,  1006,  0,  0,  -1,  -11,  -27,  -36
1434070, 1710334665, "2024/3/13 12:57:45",  4,  -55,  1003,  0,  0,  0,  -11,  -27,  -36
1434270, 1710334666, "2024/3/13 12:57:46",  0,  -53,  1004,  0,  -1,  0,  -11,  -26,  -36
1434470, 1710334666, "2024/3/13 12:57:46",  -1,  -47,  1004,  0,  0,  0,  -11,  -27,  -35
1434670, 1710334666, "2024/3/13 12:57:46",  5,  -58,  1002,  0,  0,  -1,  -9,  -26,  -36
1434870, 1710334666, "2024/3/13 12:57:46",  3,  -64,  1005,  0,  0,  -1,  -10,  -28,  -36
1435070, 1710334666, "2024/3/13 12:57:46",  0,  -61,  1007,  0,  0,  -1,  -11,  -25,  -35
1435270, 1710334667, "2024/3/13 12:57:47",  -4,  -56,  1002,  0,  0,  0,  -9,  -26,  -36
1435470, 1710334667, "2024/3/13 12:57:47",  2,  -54,  1002,  0,  0,  0,  -10,  -25,  -36
1435670, 1710334667, "2024/3/13 12:57:47",  2,  -48,  1002,  0,  -1,  0,  -9,  -27,  -37
1435870, 1710334667, "2024/3/13 12:57:47",  7,  -64,  1003,  0,  0,  -1,  -11,  -26,  -35
1436070, 1710334667, "2024/3/13 12:57:47",  8,  -58,  1003,  0,  0,  -1,  -12,  -26,  -36
1436270, 1710334668, "2024/3/13 12:57:48",  7,  -56,  1001,  0,  0,  0,  -11,  -28,  -36
1436470, 1710334668, "2024/3/13 12:57:48",  5,  -55,  1004,  0,  0,  -1,  -10,  -26,  -36
1436670, 1710334668, "2024/3/13 12:57:48",  4,  -56,  1001,  0,  0,  -1,  -12,  -27,  -36
1436870, 1710334668, "2024/3/13 12:57:48",  6,  -59,  1006,  0,  0,  0,  -10,  -27,  -36
1437070, 1710334668, "2024/3/13 12:57:48",  6,  -62,  1002,  0,  0,  0,  -10,  -27,  -36
1437270, 1710334669, "2024/3/13 12:57:49",  7,  -50,  1000,  0,  0,  0,  -11,  -25,  -36
1437470, 1710334669, "2024/3/13 12:57:49",  6,  -61,  1006,  0,  0,  0,  -10,  -26,  -36
1437670, 1710334669, "2024/3/13 12:57:49",  2,  -59,  1005,  0,  0,  -1,  -11,  -27,  -35
1437870, 1710334669, "2024/3/13 12:57:49",  8,  -55,  1004,  0,  0,  -1,  -10,  -26,  -36
1438070, 1710334669, "2024/3/13 12:57:49",  3,  -55,  1005,  0,  0,  0,  -11,  -25,  -35
1438270, 1710334670, "2024/3/13 12:57:50",  5,  -58,  1001,  0,  0,  0,  -11,  -25,  -36
1438470, 1710334670, "2024/3/13 12:57:50",  8,  -54,  1006,  0,  0,  -1,  -10,  -28,  -35
1438670, 1710334670, "2024/3/13 12:57:50",  8,  -57,  1004,  0,  0,  -1,  -11,  -26,  -37
1438870, 1710334670, "2024/3/13 12:57:50",  5,  -56,  1002,  0,  0,  -1,  -12,  -27,  -38
1439070, 1710334670, "2024/3/13 12:57:50",  10,  -58,  1004,  0,  0,  -1,  -12,  -27,  -37
1439270, 1710334671, "2024/3/13 12:57:51",  6,  -55,  1003,  0,  0,  -1,  -12,  -26,  -35
1439470, 1710334671, "2024/3/13 12:57:51",  7,  -60,  1004,  0,  0,  0,  -9,  -25,  -36
1439670, 1710334671, "2024/3/13 12:57:51",  6,  -56,  1002,  0,  0,  0,  -12,  -25,  -36
1439870, 1710334671, "2024/3/13 12:57:51",  5,  -55,  999,  0,  0,  0,  -10,  -25,  -36
1440070, 1710334671, "2024/3/13 12:57:51",  0,  -54,  1006,  0,  0,  -1,  -11,  -27,  -37
1440270, 1710334672, "2024/3/13 12:57:52",  3,  -57,  1006,  0,  0,  -1,  -10,  -27,  -35
1440470, 1710334672, "2024/3/13 12:57:52",  3,  -59,  1002,  0,  0,  -1,  -11,  -26,  -36
1440670, 1710334672, "2024/3/13 12:57:52",  5,  -58,  1006,  0,  0,  -1,  -10,  -27,  -36
1440870, 1710334672, "2024/3/13 12:57:52",  6,  -58,  1003,  0,  -1,  -1,  -11,  -27,  -35
1441070, 1710334672, "2024/3/13 12:57:52",  4,  -62,  1004,  0,  0,  -1,  -11,  -26,  -36
1441270, 1710334673, "2024/3/13 12:57:53",  6,  -60,  1002,  0,  0,  -1,  -10,  -26,  -37
1441470, 1710334673, "2024/3/13 12:57:53",  2,  -61,  1004,  0,  -1,  -1,  -12,  -26,  -36
1441670, 1710334673, "2024/3/13 12:57:53",  4,  -63,  1004,  0,  0,  -1,  -10,  -25,  -34
1441870, 1710334673, "2024/3/13 12:57:53",  6,  -56,  1005,  0,  -1,  -1,  -11,  -27,  -36
1442070, 1710334673, "2024/3/13 12:57:53",  6,  -61,  1005,  0,  0,  -1,  -11,  -28,  -37
1442270, 1710334674, "2024/3/13 12:57:54",  4,  -55,  1004,  0,  0,  -1,  -10,  -29,  -36
1442470, 1710334674, "2024/3/13 12:57:54",  -4,  -49,  998,  0,  0,  -1,  -10,  -29,  -35
1442670, 1710334674, "2024/3/13 12:57:54",  6,  -53,  1006,  0,  0,  -1,  -11,  -26,  -35
1442870, 1710334674, "2024/3/13 12:57:54",  7,  -52,  1000,  0,  0,  -1,  -11,  -27,  -37
1443070, 1710334674, "2024/3/13 12:57:54",  7,  -28,  990,  0,  0,  -1,  -11,  -26,  -35
1443270, 1710334675, "2024/3/13 12:57:55",  4,  -49,  1003,  0,  0,  -1,  -11,  -27,  -36
1443470, 1710334675, "2024/3/13 12:57:55",  11,  -57,  1002,  0,  0,  -1,  -9,  -26,  -35
1443670, 1710334675, "2024/3/13 12:57:55",  5,  -56,  1000,  0,  0,  0,  -10,  -27,  -36
1443870, 1710334675, "2024/3/13 12:57:55",  4,  -58,  1003,  0,  0,  -1,  -9,  -25,  -36
1444070, 1710334675, "2024/3/13 12:57:55",  0,  -56,  1004,  0,  0,  -1,  -10,  -26,  -36
1444270, 1710334676, "2024/3/13 12:57:56",  0,  -58,  1006,  0,  0,  -1,  -11,  -26,  -35
1444470, 1710334676, "2024/3/13 12:57:56",  7,  -56,  999,  0,  0,  -1,  -9,  -28,  -35
1444670, 1710334676, "2024/3/13 12:57:56",  9,  -64,  1005,  0,  0,  -1,  -10,  -25,  -35
1444870, 1710334676, "2024/3/13 12:57:56",  3,  -59,  1006,  0,  0,  -1,  -11,  -27,  -35
1445070, 1710334676, "2024/3/13 12:57:56",  9,  -58,  1004,  0,  0,  0,  -11,  -26,  -36
1445270, 1710334677, "2024/3/13 12:57:57",  4,  -56,  1001,  0,  0,  -1,  -11,  -27,  -36
1445470, 1710334677, "2024/3/13 12:57:57",  6,  -59,  1004,  0,  0,  0,  -10,  -27,  -35
1445670, 1710334677, "2024/3/13 12:57:57",  6,  -54,  1004,  0,  0,  -1,  -10,  -26,  -36
1445870, 1710334677, "2024/3/13 12:57:57",  6,  -63,  1001,  0,  0,  -1,  -9,  -26,  -36
1446070, 1710334677, "2024/3/13 12:57:57",  11,  -58,  1005,  0,  0,  0,  -11,  -27,  -36
1446270, 1710334678, "2024/3/13 12:57:58",  6,  -60,  1002,  0,  -1,  -1,  -10,  -26,  -37
1446470, 1710334678, "2024/3/13 12:57:58",  3,  -60,  1003,  0,  0,  0,  -11,  -27,  -36
1446670, 1710334678, "2024/3/13 12:57:58",  4,  -58,  1001,  0,  0,  -1,  -12,  -25,  -36
1446870, 1710334678, "2024/3/13 12:57:58",  5,  -57,  1002,  0,  -1,  -1,  -11,  -27,  -36
1447070, 1710334678, "2024/3/13 12:57:58",  7,  -65,  1005,  0,  0,  -1,  -9,  -25,  -37
1447270, 1710334679, "2024/3/13 12:57:59",  1,  -57,  1004,  0,  0,  -1,  -12,  -26,  -36
1447470, 1710334679, "2024/3/13 12:57:59",  3,  -54,  1001,  0,  0,  0,  -11,  -26,  -36
1447670, 1710334679, "2024/3/13 12:57:59",  5,  -56,  1005,  0,  0,  0,  -11,  -26,  -36
1447870, 1710334679, "2024/3/13 12:57:59",  3,  -57,  1001,  0,  0,  -1,  -11,  -25,  -35
1448070, 1710334679, "2024/3/13 12:57:59",  3,  -58,  1005,  0,  -1,  -1,  -11,  -26,  -36
1448270, 1710334680, "2024/3/13 12:58:0",  4,  -60,  1001,  0,  0,  -1,  -10,  -27,  -35
1448470, 1710334680, "2024/3/13 12:58:0",  6,  -61,  1006,  0,  0,  0,  -13,  -27,  -36
1448670, 1710334680, "2024/3/13 12:58:0",  3,  -57,  1004,  0,  0,  0,  -10,  -26,  -36
1448870, 1710334680, "2024/3/13 12:58:0",  7,  -55,  1002,  0,  0,  0,  -10,  -25,  -36
1449070, 1710334680, "2024/3/13 12:58:0",  3,  -60,  1003,  0,  0,  -1,  -10,  -26,  -36
1449270, 1710334681, "2024/3/13 12:58:1",  7,  -59,  1002,  0,  0,  -1,  -10,  -25,  -35
1449470, 1710334681, "2024/3/13 12:58:1",  5,  -54,  1003,  0,  -1,  -1,  -10,  -26,  -37
1449670, 1710334681, "2024/3/13 12:58:1",  8,  -62,  1004,  0,  0,  0,  -11,  -26,  -37
1449870, 1710334681, "2024/3/13 12:58:1",  1,  -53,  1005,  0,  0,  -1,  -9,  -27,  -37
1450070, 1710334681, "2024/3/13 12:58:1",  3,  -52,  1002,  0,  0,  0,  -12,  -26,  -35
1450270, 1710334682, "2024/3/13 12:58:2",  6,  -59,  1004,  0,  0,  -1,  -11,  -27,  -37
1450470, 1710334682, "2024/3/13 12:58:2",  4,  -58,  1006,  0,  0,  -1,  -10,  -25,  -36
1450670, 1710334682, "2024/3/13 12:58:2",  5,  -57,  1002,  0,  -1,  -1,  -11,  -26,  -37
1450870, 1710334682, "2024/3/13 12:58:2",  7,  -61,  1005,  0,  -1,  -1,  -12,  -26,  -36
1451070, 1710334682, "2024/3/13 12:58:2",  2,  -51,  1003,  0,  0,  -1,  -10,  -26,  -36
1451270, 1710334683, "2024/3/13 12:58:3",  6,  -59,  1006,  0,  0,  0,  -10,  -27,  -36
1451470, 1710334683, "2024/3/13 12:58:3",  7,  -57,  998,  0,  0,  -1,  -10,  -26,  -35
1451670, 1710334683, "2024/3/13 12:58:3",  8,  -54,  1005,  0,  0,  -1,  -10,  -27,  -36
1451870, 1710334683, "2024/3/13 12:58:3",  1,  -57,  1004,  0,  0,  0,  -12,  -25,  -36
1452070, 1710334683, "2024/3/13 12:58:3",  7,  -50,  1004,  0,  0,  -1,  -11,  -25,  -36
1452270, 1710334684, "2024/3/13 12:58:4",  8,  -55,  1002,  0,  0,  0,  -10,  -26,  -36
1452470, 1710334684, "2024/3/13 12:58:4",  10,  -64,  1002,  0,  0,  -1,  -10,  -27,  -38
1452670, 1710334684, "2024/3/13 12:58:4",  4,  -59,  1003,  0,  0,  0,  -9,  -26,  -36
1452870, 1710334684, "2024/3/13 12:58:4",  5,  -64,  1002,  0,  0,  0,  -10,  -26,  -36
1453070, 1710334684, "2024/3/13 12:58:4",  5,  -58,  1001,  0,  0,  -1,  -11,  -27,  -36
1453270, 1710334685, "2024/3/13 12:58:5",  5,  -60,  1005,  0,  0,  -1,  -10,  -25,  -37
1453470, 1710334685, "2024/3/13 12:58:5",  6,  -56,  1000,  0,  0,  -1,  -10,  -27,  -36
1453670, 1710334685, "2024/3/13 12:58:5",  5,  -53,  1003,  0,  0,  -1,  -11,  -25,  -36
1453870, 1710334685, "2024/3/13 12:58:5",  -2,  -57,  999,  0,  0,  -1,  -9,  -25,  -35
1454070, 1710334685, "2024/3/13 12:58:5",  9,  -58,  1005,  0,  0,  0,  -11,  -27,  -36
1454270, 1710334686, "2024/3/13 12:58:6",  6,  -61,  1002,  0,  0,  -1,  -10,  -27,  -36
1454470, 1710334686, "2024/3/13 12:58:6",  6,  -55,  1008,  0,  0,  -1,  -11,  -26,  -36
1454670, 1710334686, "2024/3/13 12:58:6",  8,  -61,  1004,  0,  0,  0,  -11,  -24,  -36
1454870, 1710334686, "2024/3/13 12:58:6",  6,  -64,  1003,  0,  0,  0,  -11,  -27,  -37
1455070, 1710334686, "2024/3/13 12:58:6",  6,  -68,  1006,  0,  0,  -1,  -11,  -26,  -36
1455270, 1710334687, "2024/3/13 12:58:7",  10,  -64,  1002,  0,  0,  -1,  -12,  -24,  -35
1455470, 1710334687, "2024/3/13 12:58:7",  11,  -61,  1003,  0,  0,  -1,  -11,  -27,  -36
1455670, 1710334687, "2024/3/13 12:58:7",  2,  -55,  1007,  0,  0,  -1,  -12,  -26,  -37
1455870, 1710334687, "2024/3/13 12:58:7",  5,  -59,  1003,  0,  0,  -1,  -10,  -26,  -37
1456070, 1710334687, "2024/3/13 12:58:7",  5,  -57,  1002,  0,  0,  -1,  -11,  -26,  -37
1456270, 1710334688, "2024/3/13 12:58:8",  7,  -60,  1003,  0,  0,  0,  -11,  -27,  -35
1456470, 1710334688, "2024/3/13 12:58:8",  6,  -58,  1003,  0,  0,  0,  -11,  -27,  -35
1456670, 1710334688, "2024/3/13 12:58:8",  7,  -60,  1002,  0,  0,  -1,  -11,  -25,  -38
1456870, 1710334688, "2024/3/13 12:58:8",  4,  -62,  1005,  0,  0,  0,  -10,  -25,  -36
1457070, 1710334688, "2024/3/13 12:58:8",  7,  -60,  1007,  0,  0,  0,  -10,  -26,  -38
1457270, 1710334689, "2024/3/13 12:58:9",  1,  -54,  1001,  0,  0,  0,  -11,  -25,  -36
1457470, 1710334689, "2024/3/13 12:58:9",  0,  -59,  1004,  0,  0,  -1,  -9,  -26,  -37
1457670, 1710334689, "2024/3/13 12:58:9",  3,  -61,  1003,  0,  0,  -1,  -9,  -25,  -36
1457870, 1710334689, "2024/3/13 12:58:9",  4,  -64,  1004,  0,  0,  -1,  -10,  -24,  -36
1458070, 1710334689, "2024/3/13 12:58:9",  6,  -57,  1002,  0,  0,  0,  -11,  -24,  -36
1458270, 1710334690, "2024/3/13 12:58:10",  -1,  -64,  1003,  0,  0,  -1,  -12,  -26,  -36
1458470, 1710334690, "2024/3/13 12:58:10",  6,  -51,  1005,  0,  0,  0,  -10,  -27,  -36
1458670, 1710334690, "2024/3/13 12:58:10",  6,  -58,  1002,  0,  -1,  -1,  -10,  -25,  -36
1458870, 1710334690, "2024/3/13 12:58:10",  5,  -60,  1000,  0,  -1,  -1,  -11,  -27,  -36
1459070, 1710334690, "2024/3/13 12:58:10",  7,  -59,  1002,  0,  0,  -1,  -10,  -27,  -35
1459270, 1710334691, "2024/3/13 12:58:11",  5,  -48,  1001,  0,  0,  0,  -12,  -26,  -36
1459470, 1710334691, "2024/3/13 12:58:11",  7,  -53,  1006,  0,  0,  0,  -11,  -26,  -36
1459670, 1710334691, "2024/3/13 12:58:11",  6,  -55,  1002,  0,  0,  -1,  -11,  -25,  -36
1459870, 1710334691, "2024/3/13 12:58:11",  5,  -58,  1003,  0,  0,  -1,  -11,  -27,  -36
1460070, 1710334691, "2024/3/13 12:58:11",  1,  -61,  1004,  0,  0,  -1,  -10,  -26,  -36
1460270, 1710334692, "2024/3/13 12:58:12",  4,  -60,  1001,  0,  0,  -1,  -10,  -26,  -35
1460470, 1710334692, "2024/3/13 12:58:12",  2,  -60,  1004,  0,  0,  -1,  -10,  -26,  -36
1460670, 1710334692, "2024/3/13 12:58:12",  -1,  -56,  1006,  0,  0,  -1,  -12,  -27,  -37
1460870, 1710334692, "2024/3/13 12:58:12",  8,  -55,  1001,  0,  0,  -1,  -12,  -26,  -37
1461070, 1710334692, "2024/3/13 12:58:12",  7,  -57,  1003,  0,  0,  -1,  -10,  -26,  -36
1461270, 1710334693, "2024/3/13 12:58:13",  6,  -58,  1000,  0,  0,  -1,  -12,  -26,  -36
1461470, 1710334693, "2024/3/13 12:58:13",  6,  -58,  1004,  0,  0,  -1,  -12,  -26,  -36
1461670, 1710334693, "2024/3/13 12:58:13",  5,  -59,  1001,  0,  0,  -1,  -11,  -25,  -36
1461870, 1710334693, "2024/3/13 12:58:13",  5,  -56,  1002,  0,  0,  0,  -11,  -25,  -36
1462070, 1710334693, "2024/3/13 12:58:13",  2,  -56,  1005,  0,  0,  -1,  -11,  -26,  -35
1462270, 1710334694, "2024/3/13 12:58:14",  3,  -55,  1006,  0,  0,  -1,  -11,  -26,  -36
1462470, 1710334694, "2024/3/13 12:58:14",  2,  -61,  999,  0,  0,  -1,  -10,  -26,  -37
1462670, 1710334694, "2024/3/13 12:58:14",  9,  -58,  1005,  0,  0,  -1,  -10,  -28,  -36
1462870, 1710334694, "2024/3/13 12:58:14",  6,  -58,  1002,  0,  -1,  -1,  -11,  -27,  -37
1463070, 1710334694, "2024/3/13 12:58:14",  4,  -57,  1003,  0,  -1,  -1,  -12,  -28,  -36
1463270, 1710334695, "2024/3/13 12:58:15",  6,  -54,  1001,  0,  0,  -1,  -9,  -25,  -35
1463470, 1710334695, "2024/3/13 12:58:15",  5,  -58,  1004,  0,  0,  0,  -11,  -27,  -37
1463670, 1710334695, "2024/3/13 12:58:15",  5,  -61,  1004,  0,  0,  0,  -10,  -27,  -36
1463870, 1710334695, "2024/3/13 12:58:15",  6,  -57,  1004,  0,  0,  0,  -12,  -26,  -36
1464070, 1710334695, "2024/3/13 12:58:15",  4,  -58,  999,  0,  0,  0,  -9,  -26,  -36
1464270, 1710334696, "2024/3/13 12:58:16",  5,  -58,  1005,  0,  0,  0,  -11,  -25,  -36
1464470, 1710334696, "2024/3/13 12:58:16",  6,  -52,  1003,  0,  0,  -1,  -12,  -26,  -36
1464670, 1710334696, "2024/3/13 12:58:16",  5,  -63,  1003,  0,  0,  0,  -11,  -26,  -36
1464870, 1710334696, "2024/3/13 12:58:16",  8,  -57,  1005,  0,  0,  -1,  -11,  -27,  -36
1465070, 1710334696, "2024/3/13 12:58:16",  5,  -56,  1005,  0,  0,  0,  -11,  -27,  -37
1465270, 1710334697, "2024/3/13 12:58:17",  3,  -55,  1001,  0,  0,  0,  -10,  -26,  -37
1465470, 1710334697, "2024/3/13 12:58:17",  3,  -56,  1005,  0,  0,  -1,  -10,  -25,  -36
1465670, 1710334697, "2024/3/13 12:58:17",  3,  -58,  1005,  0,  0,  -1,  -11,  -26,  -36
1465870, 1710334697, "2024/3/13 12:58:17",  4,  -60,  1002,  0,  0,  -1,  -11,  -24,  -36
1466070, 1710334697, "2024/3/13 12:58:17",  3,  -57,  1001,  0,  -1,  0,  -10,  -27,  -36
1466270, 1710334698, "2024/3/13 12:58:18",  6,  -61,  1003,  0,  0,  0,  -10,  -27,  -36
1466470, 1710334698, "2024/3/13 12:58:18",  10,  -58,  1003,  0,  0,  0,  -11,  -26,  -37
1466670, 1710334698, "2024/3/13 12:58:18",  3,  -48,  1001,  0,  -1,  -1,  -11,  -24,  -36
1466870, 1710334698, "2024/3/13 12:58:18",  9,  -56,  1002,  0,  0,  -1,  -11,  -25,  -35
1467070, 1710334698, "2024/3/13 12:58:18",  6,  -60,  1009,  0,  0,  -1,  -11,  -27,  -36
1467270, 1710334699, "2024/3/13 12:58:19",  10,  -58,  1006,  0,  0,  0,  -10,  -27,  -35
1467470, 1710334699, "2024/3/13 12:58:19",  4,  -53,  1004,  0,  0,  -1,  -11,  -25,  -37
1467670, 1710334699, "2024/3/13 12:58:19",  2,  -56,  1003,  0,  0,  0,  -11,  -26,  -37
1467870, 1710334699, "2024/3/13 12:58:19",  13,  -58,  1004,  0,  0,  0,  -11,  -26,  -38
1468070, 1710334699, "2024/3/13 12:58:19",  9,  -56,  1004,  0,  0,  0,  -9,  -26,  -36
1468270, 1710334700, "2024/3/13 12:58:20",  9,  -61,  1004,  0,  0,  0,  -12,  -27,  -37
1468470, 1710334700, "2024/3/13 12:58:20",  7,  -56,  999,  0,  0,  -1,  -11,  -26,  -35
1468670, 1710334700, "2024/3/13 12:58:20",  2,  -54,  1005,  0,  -1,  -1,  -10,  -27,  -37
1468870, 1710334700, "2024/3/13 12:58:20",  7,  -55,  1006,  0,  0,  0,  -9,  -26,  -37
1469070, 1710334700, "2024/3/13 12:58:20",  8,  -57,  1004,  0,  0,  -1,  -12,  -27,  -35
1469270, 1710334701, "2024/3/13 12:58:21",  4,  -61,  1003,  0,  0,  -1,  -10,  -26,  -37
1469470, 1710334701, "2024/3/13 12:58:21",  9,  -58,  999,  0,  0,  -1,  -11,  -27,  -37
1469670, 1710334701, "2024/3/13 12:58:21",  1,  -57,  1004,  0,  -1,  -1,  -12,  -28,  -34
1469870, 1710334701, "2024/3/13 12:58:21",  7,  -53,  1005,  0,  0,  -1,  -11,  -26,  -34
1470070, 1710334701, "2024/3/13 12:58:21",  4,  -52,  1000,  0,  0,  -1,  -9,  -27,  -36
1470270, 1710334702, "2024/3/13 12:58:22",  3,  -60,  1002,  0,  0,  0,  -10,  -27,  -32
1470470, 1710334702, "2024/3/13 12:58:22",  6,  -58,  1005,  0,  -1,  0,  -10,  -25,  -35
1470670, 1710334702, "2024/3/13 12:58:22",  8,  -59,  1005,  0,  0,  -1,  -10,  -26,  -33
1470870, 1710334702, "2024/3/13 12:58:22",  7,  -59,  1007,  0,  -1,  -1,  -10,  -26,  -35
1471070, 1710334702, "2024/3/13 12:58:22",  9,  -52,  1004,  0,  0,  -1,  -8,  -27,  -33
1471270, 1710334703, "2024/3/13 12:58:23",  11,  -51,  1003,  0,  0,  0,  -10,  -25,  -32
1471470, 1710334703, "2024/3/13 12:58:23",  0,  -62,  1008,  0,  0,  -1,  -10,  -26,  -32
1471670, 1710334703, "2024/3/13 12:58:23",  3,  -62,  1003,  0,  0,  0,  -11,  -26,  -32
1471870, 1710334703, "2024/3/13 12:58:23",  -1,  -57,  1005,  0,  0,  -1,  -10,  -25,  -33
1472070, 1710334703, "2024/3/13 12:58:23",  5,  -57,  1004,  0,  0,  0,  -9,  -26,  -34
1472270, 1710334704, "2024/3/13 12:58:24",  8,  -56,  1008,  0,  -1,  -1,  -10,  -26,  -34
1472470, 1710334704, "2024/3/13 12:58:24",  6,  -59,  1001,  0,  0,  -1,  -9,  -26,  -34
1472670, 1710334704, "2024/3/13 12:58:24",  4,  -60,  1005,  0,  0,  -1,  -11,  -27,  -33
1472870, 1710334704, "2024/3/13 12:58:24",  8,  -58,  1005,  0,  0,  0,  -9,  -28,  -33
1473070, 1710334704, "2024/3/13 12:58:24",  8,  -52,  1005,  0,  0,  -1,  -11,  -26,  -33
1473270, 1710334705, "2024/3/13 12:58:25",  7,  -55,  1004,  0,  0,  -1,  -10,  -27,  -33
1473470, 1710334705, "2024/3/13 12:58:25",  7,  -54,  1002,  0,  0,  -1,  -10,  -26,  -33
1473670, 1710334705, "2024/3/13 12:58:25",  4,  -58,  1003,  0,  0,  0,  -10,  -27,  -34
1473870, 1710334705, "2024/3/13 12:58:25",  1,  -58,  1004,  0,  0,  -1,  -10,  -25,  -34
1474070, 1710334705, "2024/3/13 12:58:25",  0,  -61,  1001,  0,  0,  -1,  -10,  -27,  -33
1474270, 1710334706, "2024/3/13 12:58:26",  0,  -55,  1005,  0,  0,  0,  -11,  -26,  -33
1474470, 1710334706, "2024/3/13 12:58:26",  4,  -57,  1005,  0,  0,  -1,  -10,  -26,  -33
1474670, 1710334706, "2024/3/13 12:58:26",  3,  -63,  1005,  0,  0,  -1,  -10,  -27,  -34
