millis,stamp,datetime,accX,accY,accZ,gyroX,gyroY,gyroZ,compX,compY,compZ
553674, 1710333785, "2024/3/13 12:43:5",  0,  -57,  1005,  0,  0,  -1,  -11,  -25,  -37
553874, 1710333785, "2024/3/13 12:43:5",  6,  -64,  999,  0,  0,  0,  -13,  -27,  -36
554074, 1710333785, "2024/3/13 12:43:5",  5,  -54,  1006,  0,  0,  -1,  -13,  -26,  -36
554274, 1710333785, "2024/3/13 12:43:5",  6,  -61,  1003,  0,  -1,  -1,  -13,  -26,  -36
554474, 1710333785, "2024/3/13 12:43:5",  3,  -54,  1002,  0,  0,  -1,  -12,  -24,  -37
554674, 1710333786, "2024/3/13 12:43:6",  3,  -88,  1007,  0,  0,  0,  -13,  -26,  -37
554874, 1710333786, "2024/3/13 12:43:6",  1,  -68,  1005,  0,  0,  -1,  -12,  -27,  -37
555074, 1710333786, "2024/3/13 12:43:6",  3,  -57,  1001,  0,  0,  -1,  -10,  -25,  -36
555274, 1710333786, "2024/3/13 12:43:6",  1,  -48,  1004,  0,  0,  -1,  -11,  -26,  -37
555474, 1710333786, "2024/3/13 12:43:6",  12,  -84,  1005,  0,  0,  -1,  -12,  -25,  -36
555674, 1710333787, "2024/3/13 12:43:7",  16,  -55,  1015,  0,  0,  -1,  -11,  -25,  -37
555874, 1710333787, "2024/3/13 12:43:7",  13,  -47,  1004,  0,  0,  -1,  -12,  -25,  -36
556075, 1710333787, "2024/3/13 12:43:7",  6,  -57,  1000,  0,  0,  0,  -13,  -27,  -36
556275, 1710333787, "2024/3/13 12:43:7",  1,  -57,  1003,  0,  0,  -1,  -12,  -26,  -37
556475, 1710333787, "2024/3/13 12:43:7",  8,  -62,  1002,  0,  0,  0,  -12,  -26,  -36
556675, 1710333788, "2024/3/13 12:43:8",  3,  -58,  1005,  0,  0,  0,  -12,  -26,  -36
556875, 1710333788, "2024/3/13 12:43:8",  6,  -58,  1002,  0,  0,  0,  -13,  -26,  -36
557075, 1710333788, "2024/3/13 12:43:8",  5,  -62,  1005,  0,  0,  -1,  -11,  -27,  -36
557275, 1710333788, "2024/3/13 12:43:8",  1,  -60,  1003,  0,  0,  -1,  -11,  -26,  -34
557475, 1710333788, "2024/3/13 12:43:8",  0,  -62,  1010,  1,  0,  -1,  -11,  -26,  -34
557675, 1710333789, "2024/3/13 12:43:9",  1,  -59,  1004,  0,  0,  -1,  -10,  -26,  -36
557875, 1710333789, "2024/3/13 12:43:9",  5,  -56,  1003,  0,  -1,  0,  -11,  -25,  -36
558075, 1710333789, "2024/3/13 12:43:9",  5,  -52,  1004,  0,  0,  -1,  -12,  -27,  -36
558275, 1710333789, "2024/3/13 12:43:9",  7,  -69,  1007,  0,  0,  -1,  -11,  -26,  -36
558475, 1710333789, "2024/3/13 12:43:9",  5,  -55,  1003,  0,  -1,  -1,  -11,  -26,  -37
558675, 1710333790, "2024/3/13 12:43:10",  5,  -56,  1001,  0,  -1,  -1,  -11,  -26,  -36
558875, 1710333790, "2024/3/13 12:43:10",  4,  -55,  1007,  0,  0,  0,  -12,  -25,  -36
559075, 1710333790, "2024/3/13 12:43:10",  8,  -61,  1006,  0,  0,  -1,  -11,  -26,  -35
559275, 1710333790, "2024/3/13 12:43:10",  6,  -57,  1006,  0,  0,  0,  -11,  -26,  -35
559475, 1710333790, "2024/3/13 12:43:10",  5,  -56,  1003,  0,  0,  0,  -11,  -26,  -35
559675, 1710333791, "2024/3/13 12:43:11",  7,  -57,  1004,  0,  -1,  -1,  -10,  -25,  -36
559875, 1710333791, "2024/3/13 12:43:11",  4,  -58,  1004,  0,  -1,  -1,  -11,  -25,  -34
560075, 1710333791, "2024/3/13 12:43:11",  5,  -55,  1004,  0,  0,  0,  -12,  -27,  -38
560275, 1710333791, "2024/3/13 12:43:11",  4,  -56,  1004,  0,  0,  -1,  -12,  -27,  -36
560475, 1710333791, "2024/3/13 12:43:11",  4,  -56,  1001,  0,  0,  0,  -11,  -27,  -36
560675, 1710333792, "2024/3/13 12:43:12",  0,  -54,  1005,  0,  0,  0,  -12,  -24,  -35
560875, 1710333792, "2024/3/13 12:43:12",  2,  -57,  1006,  0,  -1,  -1,  -9,  -27,  -36
561075, 1710333792, "2024/3/13 12:43:12",  7,  -60,  1004,  0,  -1,  -1,  -12,  -26,  -37
561275, 1710333792, "2024/3/13 12:43:12",  0,  -59,  1001,  0,  0,  0,  -10,  -27,  -35
561475, 1710333792, "2024/3/13 12:43:12",  4,  -58,  1007,  0,  0,  -1,  -11,  -27,  -37
561675, 1710333793, "2024/3/13 12:43:13",  6,  -52,  1007,  0,  0,  -1,  -11,  -26,  -36
561875, 1710333793, "2024/3/13 12:43:13",  5,  -57,  1003,  0,  -1,  0,  -11,  -26,  -36
562075, 1710333793, "2024/3/13 12:43:13",  5,  -53,  1003,  0,  0,  -1,  -11,  -27,  -37
562275, 1710333793, "2024/3/13 12:43:13",  3,  -60,  1000,  0,  0,  -1,  -12,  -25,  -37
562475, 1710333793, "2024/3/13 12:43:13",  5,  -59,  1006,  0,  0,  -1,  -11,  -26,  -36
562675, 1710333794, "2024/3/13 12:43:14",  5,  -60,  1004,  0,  0,  -1,  -11,  -26,  -36
562875, 1710333794, "2024/3/13 12:43:14",  9,  -61,  1003,  0,  0,  0,  -10,  -28,  -34
563075, 1710333794, "2024/3/13 12:43:14",  5,  -61,  1004,  0,  0,  -1,  -12,  -26,  -35
563275, 1710333794, "2024/3/13 12:43:14",  4,  -58,  1001,  0,  0,  -1,  -11,  -25,  -35
563475, 1710333794, "2024/3/13 12:43:14",  5,  -57,  1005,  0,  -1,  0,  -11,  -28,  -34
563675, 1710333795, "2024/3/13 12:43:15",  6,  -58,  1002,  0,  -1,  -1,  -11,  -26,  -33
563875, 1710333795, "2024/3/13 12:43:15",  7,  -61,  1004,  0,  0,  -1,  -9,  -24,  -32
564075, 1710333795, "2024/3/13 12:43:15",  7,  -54,  1004,  0,  0,  -1,  -10,  -26,  -34
564275, 1710333795, "2024/3/13 12:43:15",  6,  -58,  1006,  0,  0,  0,  -10,  -27,  -33
564475, 1710333795, "2024/3/13 12:43:15",  4,  -61,  1002,  0,  0,  0,  -11,  -25,  -34
564675, 1710333796, "2024/3/13 12:43:16",  3,  -52,  1011,  0,  -1,  -1,  -10,  -27,  -32
564875, 1710333796, "2024/3/13 12:43:16",  8,  -53,  1005,  0,  0,  -1,  -10,  -27,  -33
565075, 1710333796, "2024/3/13 12:43:16",  11,  -50,  1006,  0,  0,  -1,  -10,  -26,  -33
565275, 1710333796, "2024/3/13 12:43:16",  9,  -56,  1003,  0,  0,  -1,  -11,  -28,  -34
565475, 1710333796, "2024/3/13 12:43:16",  5,  -58,  1004,  0,  0,  0,  -11,  -27,  -34
565675, 1710333797, "2024/3/13 12:43:17",  2,  -59,  1004,  0,  0,  -1,  -10,  -25,  -34
565875, 1710333797, "2024/3/13 12:43:17",  4,  -53,  1007,  0,  0,  0,  -11,  -25,  -35
566075, 1710333797, "2024/3/13 12:43:17",  1,  -54,  1004,  0,  0,  0,  -10,  -25,  -34
566275, 1710333797, "2024/3/13 12:43:17",  2,  -57,  1005,  0,  0,  -1,  -10,  -27,  -35
566475, 1710333797, "2024/3/13 12:43:17",  7,  -49,  1007,  0,  0,  -1,  -10,  -25,  -33
566675, 1710333798, "2024/3/13 12:43:18",  0,  -55,  1004,  0,  0,  -1,  -9,  -26,  -34
566875, 1710333798, "2024/3/13 12:43:18",  5,  -59,  1005,  0,  0,  -1,  -11,  -24,  -33
567075, 1710333798, "2024/3/13 12:43:18",  6,  -57,  1002,  0,  0,  -1,  -10,  -26,  -35
567275, 1710333798, "2024/3/13 12:43:18",  7,  -56,  1005,  0,  0,  -1,  -9,  -25,  -34
567475, 1710333798, "2024/3/13 12:43:18",  5,  -57,  1004,  0,  0,  -1,  -9,  -26,  -34
567675, 1710333799, "2024/3/13 12:43:19",  7,  -62,  1007,  0,  0,  -1,  -11,  -26,  -32
567875, 1710333799, "2024/3/13 12:43:19",  6,  -55,  1002,  0,  0,  -1,  -11,  -27,  -33
568075, 1710333799, "2024/3/13 12:43:19",  5,  -58,  1002,  0,  -1,  -1,  -12,  -26,  -32
568275, 1710333799, "2024/3/13 12:43:19",  9,  -60,  1007,  0,  0,  -1,  -12,  -27,  -33
568475, 1710333799, "2024/3/13 12:43:19",  6,  -53,  1002,  0,  0,  -1,  -10,  -27,  -35
568675, 1710333800, "2024/3/13 12:43:20",  9,  -61,  1000,  0,  0,  -1,  -10,  -27,  -35
568875, 1710333800, "2024/3/13 12:43:20",  6,  -62,  1004,  0,  0,  0,  -11,  -27,  -34
569075, 1710333800, "2024/3/13 12:43:20",  5,  -57,  1007,  0,  -1,  0,  -11,  -26,  -32
569275, 1710333800, "2024/3/13 12:43:20",  6,  -60,  1005,  0,  -1,  -1,  -11,  -26,  -35
569475, 1710333800, "2024/3/13 12:43:20",  2,  -57,  1005,  0,  0,  0,  -10,  -27,  -33
569675, 1710333801, "2024/3/13 12:43:21",  8,  -60,  1004,  0,  0,  -1,  -11,  -27,  -33
569875, 1710333801, "2024/3/13 12:43:21",  5,  -56,  1001,  0,  0,  -1,  -12,  -29,  -34
570075, 1710333801, "2024/3/13 12:43:21",  6,  -61,  1001,  0,  0,  -1,  -10,  -27,  -34
570275, 1710333801, "2024/3/13 12:43:21",  0,  -59,  1002,  0,  0,  -1,  -10,  -27,  -33
570475, 1710333801, "2024/3/13 12:43:21",  8,  -55,  1001,  0,  0,  0,  -11,  -28,  -34
570675, 1710333802, "2024/3/13 12:43:22",  2,  -55,  1004,  0,  0,  0,  -10,  -25,  -35
570875, 1710333802, "2024/3/13 12:43:22",  3,  -60,  1003,  0,  0,  -1,  -10,  -28,  -34
571075, 1710333802, "2024/3/13 12:43:22",  2,  -61,  1004,  0,  0,  0,  -9,  -28,  -34
571275, 1710333802, "2024/3/13 12:43:22",  2,  -61,  1005,  0,  0,  0,  -10,  -27,  -34
571475, 1710333802, "2024/3/13 12:43:22",  3,  -56,  1000,  0,  -1,  -1,  -10,  -27,  -34
571675, 1710333803, "2024/3/13 12:43:23",  7,  -58,  1004,  0,  0,  -1,  -9,  -25,  -35
571875, 1710333803, "2024/3/13 12:43:23",  5,  -61,  1006,  0,  0,  -1,  -10,  -27,  -32
572075, 1710333803, "2024/3/13 12:43:23",  5,  -58,  1001,  0,  0,  0,  -11,  -26,  -33
572275, 1710333803, "2024/3/13 12:43:23",  5,  -59,  1006,  0,  0,  0,  -12,  -27,  -33
572475, 1710333803, "2024/3/13 12:43:23",  4,  -52,  1005,  0,  0,  -1,  -11,  -26,  -34
572675, 1710333804, "2024/3/13 12:43:24",  8,  -59,  1006,  0,  0,  0,  -11,  -27,  -35
572875, 1710333804, "2024/3/13 12:43:24",  6,  -58,  1004,  0,  0,  -1,  -10,  -27,  -34
573075, 1710333804, "2024/3/13 12:43:24",  9,  -53,  1004,  0,  -1,  -1,  -12,  -25,  -32
573275, 1710333804, "2024/3/13 12:43:24",  1,  -61,  1002,  0,  0,  -1,  -11,  -26,  -34
573475, 1710333804, "2024/3/13 12:43:24",  1,  -59,  1006,  0,  0,  -1,  -12,  -26,  -33
573675, 1710333805, "2024/3/13 12:43:25",  5,  -53,  1000,  0,  0,  0,  -11,  -26,  -33
573875, 1710333805, "2024/3/13 12:43:25",  7,  -55,  1004,  0,  0,  -1,  -12,  -28,  -34
574075, 1710333805, "2024/3/13 12:43:25",  9,  -62,  1004,  0,  0,  -1,  -9,  -26,  -32
574275, 1710333805, "2024/3/13 12:43:25",  4,  -56,  1001,  0,  0,  -1,  -11,  -25,  -34
574475, 1710333805, "2024/3/13 12:43:25",  8,  -67,  1002,  0,  0,  0,  -9,  -25,  -35
574675, 1710333806, "2024/3/13 12:43:26",  4,  -54,  1005,  0,  0,  -1,  -10,  -26,  -34
574875, 1710333806, "2024/3/13 12:43:26",  7,  -51,  1001,  0,  0,  -1,  -11,  -25,  -34
575075, 1710333806, "2024/3/13 12:43:26",  2,  -59,  1005,  0,  0,  -1,  -10,  -27,  -33
575275, 1710333806, "2024/3/13 12:43:26",  3,  -53,  1004,  0,  0,  -1,  -10,  -27,  -35
575475, 1710333806, "2024/3/13 12:43:26",  5,  -58,  1004,  0,  0,  0,  -11,  -27,  -35
575675, 1710333807, "2024/3/13 12:43:27",  0,  -54,  1006,  0,  0,  0,  -12,  -28,  -32
575875, 1710333807, "2024/3/13 12:43:27",  6,  -61,  1009,  0,  0,  -1,  -10,  -25,  -33
576075, 1710333807, "2024/3/13 12:43:27",  4,  -55,  1005,  0,  0,  0,  -9,  -27,  -35
576275, 1710333807, "2024/3/13 12:43:27",  0,  -51,  1006,  0,  0,  0,  -11,  -27,  -34
576475, 1710333807, "2024/3/13 12:43:27",  1,  -56,  1002,  0,  0,  -1,  -11,  -27,  -35
576675, 1710333808, "2024/3/13 12:43:28",  6,  -61,  1004,  0,  0,  -1,  -12,  -27,  -33
576875, 1710333808, "2024/3/13 12:43:28",  1,  -59,  1005,  0,  0,  -1,  -12,  -28,  -34
577075, 1710333808, "2024/3/13 12:43:28",  11,  -61,  1006,  0,  -1,  -1,  -11,  -28,  -34
577275, 1710333808, "2024/3/13 12:43:28",  7,  -56,  1005,  0,  0,  -1,  -10,  -26,  -34
577475, 1710333808, "2024/3/13 12:43:28",  7,  -52,  1004,  0,  -1,  -1,  -12,  -26,  -34
577675, 1710333809, "2024/3/13 12:43:29",  6,  -61,  1002,  0,  0,  0,  -11,  -28,  -36
577875, 1710333809, "2024/3/13 12:43:29",  6,  -58,  1003,  0,  0,  -1,  -11,  -28,  -34
578075, 1710333809, "2024/3/13 12:43:29",  6,  -61,  1004,  1,  0,  -1,  -11,  -25,  -34
578275, 1710333809, "2024/3/13 12:43:29",  5,  -58,  1003,  0,  -1,  -1,  -10,  -27,  -35
578475, 1710333809, "2024/3/13 12:43:29",  8,  -55,  1006,  0,  0,  -1,  -12,  -28,  -34
578675, 1710333810, "2024/3/13 12:43:30",  7,  -57,  1007,  0,  0,  -1,  -10,  -27,  -35
578875, 1710333810, "2024/3/13 12:43:30",  4,  -58,  1004,  0,  0,  -1,  -10,  -26,  -34
579075, 1710333810, "2024/3/13 12:43:30",  7,  -59,  1005,  0,  0,  -1,  -11,  -26,  -36
579275, 1710333810, "2024/3/13 12:43:30",  3,  -57,  1004,  0,  0,  -1,  -11,  -26,  -34
579475, 1710333810, "2024/3/13 12:43:30",  3,  -60,  1004,  0,  0,  -1,  -13,  -25,  -33
579675, 1710333811, "2024/3/13 12:43:31",  3,  -61,  1000,  0,  0,  -1,  -11,  -26,  -34
579875, 1710333811, "2024/3/13 12:43:31",  7,  -54,  1007,  0,  0,  -1,  -10,  -27,  -35
580075, 1710333811, "2024/3/13 12:43:31",  6,  -58,  1008,  0,  0,  0,  -11,  -27,  -34
580275, 1710333811, "2024/3/13 12:43:31",  3,  -61,  1005,  0,  0,  -1,  -10,  -27,  -33
580475, 1710333811, "2024/3/13 12:43:31",  9,  -55,  1004,  0,  0,  -1,  -10,  -28,  -34
580675, 1710333812, "2024/3/13 12:43:32",  11,  -55,  1004,  0,  -1,  -1,  -13,  -26,  -34
580875, 1710333812, "2024/3/13 12:43:32",  3,  -55,  1003,  0,  0,  0,  -10,  -24,  -34
581075, 1710333812, "2024/3/13 12:43:32",  6,  -59,  1006,  0,  -1,  -1,  -10,  -27,  -35
581275, 1710333812, "2024/3/13 12:43:32",  10,  -56,  1004,  0,  0,  -1,  -11,  -27,  -33
581475, 1710333812, "2024/3/13 12:43:32",  4,  -53,  1004,  0,  0,  0,  -11,  -26,  -35
581675, 1710333813, "2024/3/13 12:43:33",  11,  -62,  1003,  0,  0,  -1,  -11,  -26,  -34
581875, 1710333813, "2024/3/13 12:43:33",  11,  -54,  1007,  0,  0,  -1,  -11,  -27,  -34
582075, 1710333813, "2024/3/13 12:43:33",  8,  -59,  1007,  0,  0,  -1,  -11,  -26,  -35
582275, 1710333813, "2024/3/13 12:43:33",  6,  -59,  1004,  0,  0,  -1,  -10,  -27,  -34
582475, 1710333813, "2024/3/13 12:43:33",  5,  -55,  1009,  0,  0,  -1,  -12,  -27,  -34
582675, 1710333814, "2024/3/13 12:43:34",  6,  -59,  1004,  0,  -1,  -1,  -12,  -27,  -35
582875, 1710333814, "2024/3/13 12:43:34",  9,  -59,  1003,  0,  0,  -1,  -11,  -27,  -35
583075, 1710333814, "2024/3/13 12:43:34",  8,  -57,  1005,  0,  0,  0,  -11,  -27,  -34
583275, 1710333814, "2024/3/13 12:43:34",  4,  -59,  1004,  0,  -1,  -1,  -11,  -27,  -34
583475, 1710333814, "2024/3/13 12:43:34",  3,  -61,  1001,  0,  0,  -1,  -11,  -26,  -35
583675, 1710333815, "2024/3/13 12:43:35",  7,  -60,  1002,  0,  0,  -1,  -11,  -28,  -34
583875, 1710333815, "2024/3/13 12:43:35",  8,  -60,  1001,  0,  0,  -1,  -11,  -27,  -34
584075, 1710333815, "2024/3/13 12:43:35",  5,  -58,  1005,  0,  0,  -1,  -12,  -28,  -33
584275, 1710333815, "2024/3/13 12:43:35",  7,  -58,  1001,  0,  0,  -1,  -12,  -28,  -34
584475, 1710333815, "2024/3/13 12:43:35",  4,  -65,  1004,  0,  0,  0,  -11,  -27,  -35
584675, 1710333816, "2024/3/13 12:43:36",  11,  -58,  1003,  0,  -1,  -1,  -10,  -26,  -34
584875, 1710333816, "2024/3/13 12:43:36",  8,  -59,  1005,  0,  -1,  0,  -11,  -27,  -35
585075, 1710333816, "2024/3/13 12:43:36",  5,  -57,  1001,  0,  0,  0,  -12,  -27,  -35
585275, 1710333816, "2024/3/13 12:43:36",  5,  -57,  1002,  0,  0,  0,  -11,  -27,  -35
585475, 1710333816, "2024/3/13 12:43:36",  5,  -59,  1007,  0,  0,  0,  -11,  -27,  -35
585675, 1710333817, "2024/3/13 12:43:37",  0,  -57,  1003,  0,  0,  -1,  -11,  -27,  -34
585875, 1710333817, "2024/3/13 12:43:37",  3,  -60,  1003,  0,  0,  0,  -11,  -27,  -33
586075, 1710333817, "2024/3/13 12:43:37",  4,  -57,  1004,  0,  0,  -1,  -11,  -26,  -33
586275, 1710333817, "2024/3/13 12:43:37",  3,  -57,  1003,  0,  -1,  -1,  -10,  -27,  -35
586475, 1710333817, "2024/3/13 12:43:37",  7,  -58,  1000,  0,  0,  -1,  -12,  -27,  -34
586675, 1710333818, "2024/3/13 12:43:38",  7,  -57,  1004,  0,  0,  -1,  -11,  -25,  -32
586875, 1710333818, "2024/3/13 12:43:38",  2,  -53,  1006,  0,  0,  0,  -10,  -26,  -37
587075, 1710333818, "2024/3/13 12:43:38",  6,  -59,  1005,  0,  0,  0,  -11,  -27,  -34
587275, 1710333818, "2024/3/13 12:43:38",  1,  -60,  1006,  0,  0,  0,  -13,  -26,  -36
587475, 1710333818, "2024/3/13 12:43:38",  8,  -61,  1004,  0,  0,  -1,  -11,  -28,  -33
587675, 1710333819, "2024/3/13 12:43:39",  6,  -56,  1002,  0,  0,  0,  -9,  -28,  -35
587875, 1710333819, "2024/3/13 12:43:39",  6,  -54,  1005,  0,  0,  0,  -10,  -28,  -35
588075, 1710333819, "2024/3/13 12:43:39",  2,  -60,  1004,  0,  0,  -1,  -11,  -28,  -35
588275, 1710333819, "2024/3/13 12:43:39",  5,  -59,  1006,  0,  0,  -1,  -10,  -27,  -33
588475, 1710333819, "2024/3/13 12:43:39",  6,  -54,  1003,  0,  0,  0,  -11,  -28,  -34
588675, 1710333820, "2024/3/13 12:43:40",  6,  -55,  1004,  0,  0,  -1,  -10,  -27,  -36
588875, 1710333820, "2024/3/13 12:43:40",  2,  -56,  1013,  0,  0,  -1,  -11,  -27,  -36
589075, 1710333820, "2024/3/13 12:43:40",  7,  -60,  1005,  0,  0,  0,  -12,  -27,  -34
589275, 1710333820, "2024/3/13 12:43:40",  8,  -63,  1005,  0,  0,  -1,  -10,  -26,  -35
589475, 1710333820, "2024/3/13 12:43:40",  5,  -59,  1003,  0,  0,  -1,  -11,  -27,  -34
589675, 1710333821, "2024/3/13 12:43:41",  6,  -59,  1006,  0,  0,  0,  -10,  -27,  -33
589875, 1710333821, "2024/3/13 12:43:41",  5,  -58,  1005,  0,  0,  -1,  -13,  -27,  -34
590075, 1710333821, "2024/3/13 12:43:41",  5,  -59,  1004,  0,  0,  0,  -9,  -26,  -35
590275, 1710333821, "2024/3/13 12:43:41",  1,  -58,  1005,  0,  -1,  0,  -12,  -25,  -33
590475, 1710333821, "2024/3/13 12:43:41",  3,  -60,  1003,  0,  0,  -1,  -9,  -27,  -36
590675, 1710333822, "2024/3/13 12:43:42",  4,  -54,  1002,  0,  0,  0,  -12,  -27,  -34
590875, 1710333822, "2024/3/13 12:43:42",  7,  -57,  1006,  0,  0,  0,  -10,  -27,  -34
591075, 1710333822, "2024/3/13 12:43:42",  0,  -56,  1000,  0,  0,  0,  -11,  -26,  -33
591275, 1710333822, "2024/3/13 12:43:42",  5,  -54,  1002,  0,  -1,  0,  -10,  -26,  -34
591475, 1710333822, "2024/3/13 12:43:42",  6,  -59,  1001,  0,  0,  -1,  -11,  -29,  -33
591675, 1710333823, "2024/3/13 12:43:43",  5,  -56,  1004,  0,  0,  -1,  -11,  -27,  -35
591875, 1710333823, "2024/3/13 12:43:43",  1,  -58,  1002,  0,  0,  -1,  -10,  -27,  -34
592075, 1710333823, "2024/3/13 12:43:43",  5,  -58,  1004,  0,  -1,  -1,  -10,  -27,  -35
592275, 1710333823, "2024/3/13 12:43:43",  0,  -58,  1001,  0,  -1,  0,  -12,  -26,  -36
592475, 1710333823, "2024/3/13 12:43:43",  0,  -60,  1003,  0,  0,  0,  -11,  -25,  -35
592675, 1710333824, "2024/3/13 12:43:44",  0,  -64,  1004,  0,  0,  0,  -11,  -27,  -35
592875, 1710333824, "2024/3/13 12:43:44",  4,  -58,  1004,  0,  0,  -1,  -10,  -25,  -33
593075, 1710333824, "2024/3/13 12:43:44",  6,  -58,  1004,  0,  0,  -1,  -12,  -28,  -33
593275, 1710333824, "2024/3/13 12:43:44",  5,  -64,  1005,  0,  0,  -1,  -11,  -25,  -32
593475, 1710333824, "2024/3/13 12:43:44",  2,  -63,  1002,  0,  0,  -1,  -11,  -28,  -34
593675, 1710333825, "2024/3/13 12:43:45",  6,  -58,  1002,  0,  0,  0,  -11,  -27,  -35
593875, 1710333825, "2024/3/13 12:43:45",  6,  -56,  1005,  0,  0,  -1,  -11,  -26,  -33
594075, 1710333825, "2024/3/13 12:43:45",  4,  -57,  1004,  0,  0,  0,  -11,  -27,  -34
594275, 1710333825, "2024/3/13 12:43:45",  -1,  -62,  1004,  0,  -1,  -1,  -10,  -28,  -33
594475, 1710333825, "2024/3/13 12:43:45",  1,  -58,  1005,  0,  0,  -1,  -11,  -27,  -33
594675, 1710333826, "2024/3/13 12:43:46",  6,  -61,  1002,  0,  0,  0,  -11,  -28,  -34
594875, 1710333826, "2024/3/13 12:43:46",  6,  -63,  1004,  0,  0,  0,  -9,  -26,  -34
595075, 1710333826, "2024/3/13 12:43:46",  5,  -60,  1002,  0,  0,  0,  -10,  -27,  -34
595275, 1710333826, "2024/3/13 12:43:46",  -1,  -57,  1006,  0,  0,  0,  -11,  -27,  -36
595475, 1710333826, "2024/3/13 12:43:46",  3,  -61,  1003,  0,  -1,  -1,  -11,  -26,  -34
595675, 1710333827, "2024/3/13 12:43:47",  4,  -56,  1005,  0,  -1,  -1,  -11,  -28,  -34
595875, 1710333827, "2024/3/13 12:43:47",  5,  -56,  1002,  0,  0,  -1,  -12,  -27,  -34
596075, 1710333827, "2024/3/13 12:43:47",  8,  -59,  1003,  0,  0,  -1,  -10,  -26,  -34
596275, 1710333827, "2024/3/13 12:43:47",  8,  -46,  1004,  0,  0,  -1,  -12,  -26,  -35
596475, 1710333827, "2024/3/13 12:43:47",  4,  -58,  1003,  0,  0,  -1,  -10,  -27,  -34
596675, 1710333828, "2024/3/13 12:43:48",  3,  -63,  1002,  0,  -1,  0,  -10,  -26,  -36
596875, 1710333828, "2024/3/13 12:43:48",  -4,  -46,  980,  0,  -1,  -1,  -10,  -26,  -36
597075, 1710333828, "2024/3/13 12:43:48",  5,  -66,  1000,  0,  0,  -1,  -10,  -25,  -36
597275, 1710333828, "2024/3/13 12:43:48",  4,  -55,  1003,  0,  0,  0,  -11,  -27,  -34
597475, 1710333828, "2024/3/13 12:43:48",  3,  -60,  1005,  0,  0,  0,  -10,  -28,  -34
597675, 1710333829, "2024/3/13 12:43:49",  3,  -56,  1006,  0,  0,  0,  -11,  -26,  -35
597875, 1710333829, "2024/3/13 12:43:49",  4,  -62,  1003,  0,  0,  -1,  -11,  -27,  -34
598075, 1710333829, "2024/3/13 12:43:49",  10,  -61,  1004,  0,  -1,  -1,  -11,  -26,  -34
598275, 1710333829, "2024/3/13 12:43:49",  8,  -64,  1005,  0,  0,  -1,  -11,  -27,  -35
598475, 1710333829, "2024/3/13 12:43:49",  7,  -58,  1007,  0,  0,  -1,  -11,  -27,  -34
598675, 1710333830, "2024/3/13 12:43:50",  4,  -60,  1001,  0,  0,  -1,  -10,  -27,  -31
598875, 1710333830, "2024/3/13 12:43:50",  5,  -60,  1007,  0,  0,  0,  -10,  -28,  -34
599075, 1710333830, "2024/3/13 12:43:50",  2,  -57,  1003,  0,  0,  0,  -11,  -27,  -34
599275, 1710333830, "2024/3/13 12:43:50",  4,  -63,  1007,  0,  0,  -1,  -10,  -26,  -35
599475, 1710333830, "2024/3/13 12:43:50",  7,  -62,  1002,  0,  0,  -1,  -11,  -27,  -34
599675, 1710333831, "2024/3/13 12:43:51",  7,  -55,  1006,  0,  0,  -1,  -11,  -27,  -35
599875, 1710333831, "2024/3/13 12:43:51",  3,  -60,  1003,  0,  0,  -1,  -10,  -28,  -36
600075, 1710333831, "2024/3/13 12:43:51",  4,  -58,  1008,  0,  0,  0,  -9,  -27,  -35
600275, 1710333831, "2024/3/13 12:43:51",  7,  -56,  1005,  0,  0,  -1,  -11,  -26,  -35
600475, 1710333831, "2024/3/13 12:43:51",  6,  -58,  1004,  0,  0,  0,  -11,  -26,  -34
600675, 1710333832, "2024/3/13 12:43:52",  2,  -55,  1005,  0,  0,  -1,  -12,  -27,  -34
600875, 1710333832, "2024/3/13 12:43:52",  3,  -61,  1005,  0,  0,  0,  -10,  -24,  -34
601075, 1710333832, "2024/3/13 12:43:52",  8,  -61,  1004,  0,  0,  0,  -10,  -27,  -34
601275, 1710333832, "2024/3/13 12:43:52",  4,  -55,  1003,  0,  0,  -1,  -9,  -25,  -34
601475, 1710333832, "2024/3/13 12:43:52",  10,  -57,  1002,  0,  0,  0,  -11,  -27,  -34
601675, 1710333833, "2024/3/13 12:43:53",  6,  -53,  1002,  0,  0,  0,  -11,  -28,  -34
601875, 1710333833, "2024/3/13 12:43:53",  7,  -52,  1000,  0,  0,  -1,  -10,  -27,  -35
602075, 1710333833, "2024/3/13 12:43:53",  15,  -60,  1003,  0,  0,  -1,  -11,  -28,  -34
602275, 1710333833, "2024/3/13 12:43:53",  12,  -58,  1004,  0,  -1,  -1,  -12,  -28,  -34
602475, 1710333833, "2024/3/13 12:43:53",  5,  -56,  1007,  0,  -1,  -1,  -12,  -25,  -36
602675, 1710333834, "2024/3/13 12:43:54",  10,  -57,  1003,  0,  0,  -1,  -12,  -27,  -34
602875, 1710333834, "2024/3/13 12:43:54",  8,  -58,  1006,  0,  0,  -1,  -10,  -26,  -34
603075, 1710333834, "2024/3/13 12:43:54",  8,  -60,  1004,  0,  0,  -1,  -10,  -27,  -35
603275, 1710333834, "2024/3/13 12:43:54",  6,  -60,  1003,  0,  0,  -1,  -10,  -26,  -34
603475, 1710333834, "2024/3/13 12:43:54",  3,  -53,  1005,  0,  0,  -1,  -11,  -26,  -34
603675, 1710333835, "2024/3/13 12:43:55",  4,  -58,  1005,  0,  0,  -1,  -9,  -27,  -33
603875, 1710333835, "2024/3/13 12:43:55",  6,  -56,  1007,  0,  -1,  -1,  -11,  -28,  -35
604075, 1710333835, "2024/3/13 12:43:55",  7,  -57,  1006,  0,  0,  -1,  -10,  -26,  -35
604275, 1710333835, "2024/3/13 12:43:55",  6,  -64,  1004,  0,  0,  -1,  -8,  -27,  -34
604475, 1710333835, "2024/3/13 12:43:55",  8,  -57,  1002,  0,  0,  -1,  -11,  -27,  -34
604675, 1710333836, "2024/3/13 12:43:56",  8,  -57,  1007,  0,  0,  0,  -12,  -28,  -35
604875, 1710333836, "2024/3/13 12:43:56",  10,  -57,  1002,  0,  0,  -1,  -11,  -25,  -33
605075, 1710333836, "2024/3/13 12:43:56",  3,  -61,  1005,  0,  0,  0,  -11,  -25,  -34
605275, 1710333836, "2024/3/13 12:43:56",  0,  -60,  1003,  0,  0,  -1,  -12,  -28,  -34
605475, 1710333836, "2024/3/13 12:43:56",  2,  -63,  1006,  0,  0,  -1,  -10,  -27,  -34
605675, 1710333837, "2024/3/13 12:43:57",  6,  -58,  1001,  0,  0,  -1,  -11,  -28,  -33
605875, 1710333837, "2024/3/13 12:43:57",  4,  -58,  1002,  0,  0,  -1,  -11,  -28,  -33
606075, 1710333837, "2024/3/13 12:43:57",  2,  -59,  1001,  0,  0,  0,  -10,  -26,  -32
606275, 1710333837, "2024/3/13 12:43:57",  5,  -58,  1006,  0,  0,  -1,  -10,  -28,  -33
606475, 1710333837, "2024/3/13 12:43:57",  6,  -57,  1001,  0,  0,  0,  -11,  -28,  -34
606675, 1710333838, "2024/3/13 12:43:58",  6,  -59,  1008,  0,  0,  -1,  -10,  -27,  -34
606875, 1710333838, "2024/3/13 12:43:58",  9,  -54,  1005,  0,  0,  0,  -10,  -27,  -35
607075, 1710333838, "2024/3/13 12:43:58",  3,  -58,  1003,  0,  0,  -1,  -11,  -27,  -33
607275, 1710333838, "2024/3/13 12:43:58",  7,  -60,  1005,  0,  0,  -1,  -12,  -26,  -34
607475, 1710333838, "2024/3/13 12:43:58",  8,  -55,  1004,  0,  0,  -1,  -11,  -27,  -34
607675, 1710333839, "2024/3/13 12:43:59",  5,  -60,  1004,  0,  0,  0,  -11,  -27,  -33
607875, 1710333839, "2024/3/13 12:43:59",  6,  -53,  1003,  0,  0,  0,  -11,  -26,  -34
608075, 1710333839, "2024/3/13 12:43:59",  4,  -56,  1002,  0,  0,  -1,  -10,  -27,  -35
608275, 1710333839, "2024/3/13 12:43:59",  8,  -59,  1005,  0,  0,  -1,  -10,  -28,  -34
608475, 1710333839, "2024/3/13 12:43:59",  5,  -62,  1005,  0,  0,  0,  -11,  -26,  -34
608675, 1710333840, "2024/3/13 12:44:0",  10,  -62,  1007,  0,  -1,  -1,  -12,  -27,  -34
608875, 1710333840, "2024/3/13 12:44:0",  5,  -60,  1008,  0,  0,  0,  -10,  -26,  -35
609075, 1710333840, "2024/3/13 12:44:0",  6,  -56,  1003,  0,  0,  -1,  -11,  -26,  -33
609275, 1710333840, "2024/3/13 12:44:0",  5,  -64,  1004,  0,  0,  -1,  -11,  -27,  -34
609475, 1710333840, "2024/3/13 12:44:0",  7,  -58,  1003,  0,  0,  0,  -10,  -28,  -34
609675, 1710333841, "2024/3/13 12:44:1",  3,  -57,  1005,  0,  0,  0,  -12,  -26,  -34
609875, 1710333841, "2024/3/13 12:44:1",  10,  -57,  1005,  0,  0,  -1,  -12,  -26,  -34
610075, 1710333841, "2024/3/13 12:44:1",  5,  -53,  1003,  0,  0,  0,  -11,  -27,  -35
610275, 1710333841, "2024/3/13 12:44:1",  8,  -60,  1001,  0,  0,  -1,  -11,  -27,  -35
610475, 1710333841, "2024/3/13 12:44:1",  1,  -62,  1006,  0,  0,  -1,  -12,  -26,  -34
610675, 1710333842, "2024/3/13 12:44:2",  6,  -57,  1005,  0,  0,  -1,  -11,  -27,  -35
610875, 1710333842, "2024/3/13 12:44:2",  9,  -57,  1006,  0,  0,  -1,  -12,  -27,  -35
611075, 1710333842, "2024/3/13 12:44:2",  6,  -57,  1005,  0,  0,  0,  -11,  -26,  -34
611275, 1710333842, "2024/3/13 12:44:2",  7,  -60,  1004,  0,  0,  0,  -11,  -25,  -35
611475, 1710333842, "2024/3/13 12:44:2",  10,  -58,  1005,  0,  -1,  -1,  -11,  -26,  -34
611675, 1710333843, "2024/3/13 12:44:3",  5,  -63,  1004,  0,  0,  -1,  -10,  -25,  -34
611875, 1710333843, "2024/3/13 12:44:3",  6,  -60,  1002,  0,  -1,  -1,  -10,  -28,  -36
612075, 1710333843, "2024/3/13 12:44:3",  8,  -57,  1007,  0,  0,  0,  -11,  -28,  -34
612275, 1710333843, "2024/3/13 12:44:3",  5,  -58,  1001,  0,  0,  0,  -9,  -26,  -35
612475, 1710333843, "2024/3/13 12:44:3",  6,  -59,  1003,  0,  0,  0,  -10,  -27,  -34
612675, 1710333844, "2024/3/13 12:44:4",  10,  -61,  1008,  0,  0,  -1,  -9,  -25,  -33
612875, 1710333844, "2024/3/13 12:44:4",  6,  -57,  1004,  0,  0,  -1,  -10,  -28,  -33
613075, 1710333844, "2024/3/13 12:44:4",  8,  -58,  1000,  0,  0,  -1,  -10,  -26,  -34
613275, 1710333844, "2024/3/13 12:44:4",  4,  -67,  1007,  0,  0,  -1,  -11,  -27,  -33
613475, 1710333844, "2024/3/13 12:44:4",  4,  -53,  1005,  0,  0,  -1,  -12,  -25,  -35
613675, 1710333845, "2024/3/13 12:44:5",  5,  -59,  1005,  0,  0,  -1,  -12,  -26,  -34
613875, 1710333845, "2024/3/13 12:44:5",  6,  -62,  1005,  0,  -1,  -1,  -12,  -27,  -33
614075, 1710333845, "2024/3/13 12:44:5",  3,  -62,  1003,  0,  0,  -1,  -12,  -27,  -33
614275, 1710333845, "2024/3/13 12:44:5",  7,  -59,  1006,  0,  0,  -1,  -11,  -26,  -34
614475, 1710333845, "2024/3/13 12:44:5",  8,  -56,  1000,  0,  0,  -1,  -10,  -25,  -33
614675, 1710333846, "2024/3/13 12:44:6",  6,  -64,  1004,  0,  0,  0,  -11,  -27,  -33
614875, 1710333846, "2024/3/13 12:44:6",  6,  -60,  1007,  0,  -1,  0,  -10,  -27,  -35
615075, 1710333846, "2024/3/13 12:44:6",  4,  -56,  1003,  0,  0,  0,  -11,  -27,  -34
615275, 1710333846, "2024/3/13 12:44:6",  9,  -62,  1006,  0,  0,  -1,  -11,  -27,  -33
615475, 1710333846, "2024/3/13 12:44:6",  12,  -58,  1004,  0,  0,  -1,  -12,  -27,  -34
615675, 1710333847, "2024/3/13 12:44:7",  6,  -55,  1003,  0,  0,  0,  -11,  -26,  -34
615875, 1710333847, "2024/3/13 12:44:7",  7,  -56,  1006,  0,  0,  -1,  -11,  -25,  -34
616075, 1710333847, "2024/3/13 12:44:7",  3,  -54,  1004,  0,  0,  -1,  -10,  -27,  -33
616275, 1710333847, "2024/3/13 12:44:7",  5,  -54,  1001,  0,  -1,  -1,  -10,  -27,  -33
616475, 1710333847, "2024/3/13 12:44:7",  8,  -58,  1004,  0,  0,  0,  -12,  -26,  -36
616675, 1710333848, "2024/3/13 12:44:8",  6,  -57,  1003,  0,  -1,  -1,  -10,  -25,  -36
616875, 1710333848, "2024/3/13 12:44:8",  5,  -57,  1001,  0,  -1,  -1,  -9,  -27,  -36
617075, 1710333848, "2024/3/13 12:44:8",  7,  -50,  1002,  0,  0,  0,  -11,  -25,  -36
617275, 1710333848, "2024/3/13 12:44:8",  4,  -56,  1005,  0,  0,  -1,  -11,  -26,  -37
617475, 1710333848, "2024/3/13 12:44:8",  6,  -50,  1007,  0,  0,  -1,  -13,  -27,  -36
617675, 1710333849, "2024/3/13 12:44:9",  9,  -60,  1004,  0,  0,  0,  -11,  -26,  -36
617875, 1710333849, "2024/3/13 12:44:9",  5,  -55,  1003,  0,  0,  0,  -11,  -26,  -35
618075, 1710333849, "2024/3/13 12:44:9",  7,  -59,  1003,  0,  -1,  -1,  -11,  -27,  -37
618275, 1710333849, "2024/3/13 12:44:9",  6,  -59,  1000,  0,  -1,  -1,  -12,  -25,  -37
618475, 1710333849, "2024/3/13 12:44:9",  5,  -57,  1007,  0,  0,  0,  -11,  -26,  -36
618675, 1710333850, "2024/3/13 12:44:10",  4,  -55,  1001,  0,  0,  -1,  -12,  -26,  -38
618875, 1710333850, "2024/3/13 12:44:10",  5,  -63,  1006,  0,  0,  -1,  -10,  -27,  -36
619075, 1710333850, "2024/3/13 12:44:10",  2,  -60,  1006,  0,  0,  0,  -12,  -27,  -36
619275, 1710333850, "2024/3/13 12:44:10",  2,  -53,  1004,  0,  0,  -1,  -12,  -26,  -37
619475, 1710333850, "2024/3/13 12:44:10",  7,  -56,  1005,  0,  -1,  -1,  -13,  -27,  -35
619675, 1710333851, "2024/3/13 12:44:11",  4,  -52,  1003,  0,  -1,  0,  -12,  -25,  -37
619875, 1710333851, "2024/3/13 12:44:11",  7,  -59,  1004,  0,  0,  -1,  -11,  -26,  -37
620075, 1710333851, "2024/3/13 12:44:11",  5,  -59,  1004,  0,  0,  -1,  -11,  -26,  -35
620275, 1710333851, "2024/3/13 12:44:11",  3,  -61,  1007,  0,  0,  -1,  -13,  -27,  -36
620475, 1710333851, "2024/3/13 12:44:11",  3,  -57,  1003,  0,  0,  0,  -11,  -25,  -37
620675, 1710333852, "2024/3/13 12:44:12",  4,  -57,  1003,  0,  -1,  -1,  -11,  -27,  -37
620875, 1710333852, "2024/3/13 12:44:12",  4,  -60,  1000,  0,  0,  0,  -11,  -26,  -34
621075, 1710333852, "2024/3/13 12:44:12",  0,  -62,  1002,  0,  0,  -1,  -11,  -25,  -36
621275, 1710333852, "2024/3/13 12:44:12",  6,  -55,  1004,  0,  0,  0,  -11,  -27,  -36
621475, 1710333852, "2024/3/13 12:44:12",  10,  -57,  1007,  0,  0,  -1,  -13,  -27,  -36
621675, 1710333853, "2024/3/13 12:44:13",  2,  -55,  1002,  1,  0,  0,  -10,  -27,  -37
621875, 1710333853, "2024/3/13 12:44:13",  7,  -60,  1005,  0,  0,  0,  -9,  -26,  -36
622075, 1710333853, "2024/3/13 12:44:13",  2,  -59,  1001,  0,  0,  -1,  -9,  -28,  -36
622275, 1710333853, "2024/3/13 12:44:13",  6,  -63,  1002,  0,  0,  0,  -11,  -27,  -35
622475, 1710333853, "2024/3/13 12:44:13",  2,  -60,  1002,  0,  0,  -1,  -12,  -26,  -37
622675, 1710333854, "2024/3/13 12:44:14",  3,  -56,  1002,  0,  0,  0,  -11,  -25,  -37
622875, 1710333854, "2024/3/13 12:44:14",  1,  -58,  1003,  0,  0,  0,  -11,  -26,  -36
623075, 1710333854, "2024/3/13 12:44:14",  3,  -61,  1007,  0,  0,  -1,  -12,  -26,  -37
623275, 1710333854, "2024/3/13 12:44:14",  0,  -58,  1005,  0,  -1,  -1,  -10,  -25,  -36
623475, 1710333854, "2024/3/13 12:44:14",  2,  -55,  1006,  0,  0,  -1,  -12,  -25,  -36
623675, 1710333855, "2024/3/13 12:44:15",  0,  -57,  1002,  0,  0,  -1,  -12,  -27,  -38
623875, 1710333855, "2024/3/13 12:44:15",  8,  -54,  1000,  0,  0,  -1,  -11,  -26,  -36
624075, 1710333855, "2024/3/13 12:44:15",  2,  -60,  1006,  0,  0,  0,  -12,  -25,  -38
624275, 1710333855, "2024/3/13 12:44:15",  3,  -59,  1004,  0,  0,  -1,  -12,  -26,  -37
624475, 1710333855, "2024/3/13 12:44:15",  5,  -59,  1005,  0,  0,  0,  -11,  -26,  -36
624675, 1710333856, "2024/3/13 12:44:16",  2,  -55,  1003,  0,  0,  0,  -11,  -26,  -36
624875, 1710333856, "2024/3/13 12:44:16",  8,  -59,  1003,  0,  0,  0,  -11,  -28,  -36
625075, 1710333856, "2024/3/13 12:44:16",  4,  -58,  1004,  0,  0,  -1,  -11,  -27,  -38
625275, 1710333856, "2024/3/13 12:44:16",  3,  -56,  1002,  0,  0,  -1,  -13,  -25,  -36
625475, 1710333856, "2024/3/13 12:44:16",  5,  -55,  1004,  0,  0,  -1,  -13,  -27,  -36
625675, 1710333857, "2024/3/13 12:44:17",  0,  -56,  1003,  0,  0,  0,  -12,  -27,  -37
625875, 1710333857, "2024/3/13 12:44:17",  3,  -58,  1002,  0,  0,  -1,  -12,  -26,  -36
626075, 1710333857, "2024/3/13 12:44:17",  8,  -56,  1002,  0,  0,  -1,  -11,  -26,  -36
626275, 1710333857, "2024/3/13 12:44:17",  6,  -57,  1003,  0,  0,  0,  -10,  -26,  -37
626475, 1710333857, "2024/3/13 12:44:17",  4,  -57,  1002,  0,  0,  0,  -11,  -27,  -36
626675, 1710333858, "2024/3/13 12:44:18",  0,  -59,  1004,  0,  0,  0,  -11,  -25,  -38
626875, 1710333858, "2024/3/13 12:44:18",  1,  -53,  1005,  0,  0,  0,  -10,  -27,  -36
627075, 1710333858, "2024/3/13 12:44:18",  5,  -58,  1003,  0,  -1,  0,  -11,  -26,  -35
627275, 1710333858, "2024/3/13 12:44:18",  2,  -58,  1002,  0,  0,  -1,  -11,  -27,  -36
627475, 1710333858, "2024/3/13 12:44:18",  2,  -60,  1005,  0,  -1,  0,  -12,  -26,  -36
627675, 1710333859, "2024/3/13 12:44:19",  6,  -55,  1006,  0,  0,  -1,  -11,  -26,  -37
627875, 1710333859, "2024/3/13 12:44:19",  4,  -59,  1005,  0,  0,  0,  -10,  -27,  -36
628075, 1710333859, "2024/3/13 12:44:19",  3,  -58,  1003,  0,  0,  -1,  -12,  -28,  -37
628275, 1710333859, "2024/3/13 12:44:19",  3,  -56,  1007,  0,  0,  -1,  -10,  -25,  -35
628475, 1710333859, "2024/3/13 12:44:19",  4,  -57,  1001,  0,  0,  -1,  -9,  -25,  -36
628675, 1710333860, "2024/3/13 12:44:20",  6,  -53,  1001,  0,  0,  -1,  -11,  -26,  -37
628875, 1710333860, "2024/3/13 12:44:20",  5,  -61,  1006,  0,  0,  -1,  -12,  -25,  -36
629075, 1710333860, "2024/3/13 12:44:20",  2,  -58,  1008,  0,  -1,  -1,  -11,  -27,  -36
629275, 1710333860, "2024/3/13 12:44:20",  3,  -62,  1000,  0,  0,  0,  -11,  -25,  -35
629475, 1710333860, "2024/3/13 12:44:20",  4,  -59,  1004,  0,  0,  -1,  -11,  -26,  -36
629675, 1710333861, "2024/3/13 12:44:21",  4,  -57,  1001,  0,  0,  -1,  -9,  -26,  -36
629875, 1710333861, "2024/3/13 12:44:21",  3,  -53,  1003,  0,  0,  0,  -11,  -26,  -37
630075, 1710333861, "2024/3/13 12:44:21",  5,  -54,  1005,  0,  0,  -1,  -11,  -26,  -37
630275, 1710333861, "2024/3/13 12:44:21",  3,  -57,  1008,  0,  0,  0,  -11,  -25,  -37
630475, 1710333861, "2024/3/13 12:44:21",  4,  -61,  1004,  0,  -1,  -1,  -11,  -27,  -36
630675, 1710333862, "2024/3/13 12:44:22",  4,  -61,  1004,  0,  0,  -1,  -10,  -26,  -36
630875, 1710333862, "2024/3/13 12:44:22",  6,  -57,  1004,  0,  0,  0,  -12,  -27,  -36
631075, 1710333862, "2024/3/13 12:44:22",  8,  -55,  1007,  0,  0,  -1,  -9,  -25,  -36
631275, 1710333862, "2024/3/13 12:44:22",  4,  -60,  1004,  0,  0,  0,  -10,  -25,  -36
631475, 1710333862, "2024/3/13 12:44:22",  6,  -55,  1008,  0,  0,  -1,  -12,  -27,  -37
631675, 1710333863, "2024/3/13 12:44:23",  6,  -56,  1000,  0,  0,  -1,  -11,  -25,  -37
631875, 1710333863, "2024/3/13 12:44:23",  6,  -60,  1003,  0,  0,  -1,  -12,  -26,  -38
632075, 1710333863, "2024/3/13 12:44:23",  2,  -54,  1006,  0,  0,  -1,  -11,  -27,  -38
632275, 1710333863, "2024/3/13 12:44:23",  1,  -53,  1001,  0,  0,  -1,  -12,  -27,  -38
632475, 1710333863, "2024/3/13 12:44:23",  5,  -61,  1002,  0,  -1,  -1,  -12,  -25,  -37
632675, 1710333864, "2024/3/13 12:44:24",  6,  -50,  1005,  0,  0,  -1,  -10,  -26,  -36
632875, 1710333864, "2024/3/13 12:44:24",  2,  -56,  1005,  0,  0,  0,  -12,  -26,  -35
633075, 1710333864, "2024/3/13 12:44:24",  3,  -52,  1001,  0,  0,  -1,  -12,  -27,  -37
633275, 1710333864, "2024/3/13 12:44:24",  2,  -54,  1006,  0,  0,  -1,  -11,  -25,  -36
633475, 1710333864, "2024/3/13 12:44:24",  3,  -50,  1003,  0,  0,  0,  -11,  -26,  -37
633675, 1710333865, "2024/3/13 12:44:25",  8,  -60,  1004,  0,  0,  -1,  -10,  -27,  -37
633875, 1710333865, "2024/3/13 12:44:25",  4,  -58,  1003,  0,  0,  0,  -11,  -26,  -37
634075, 1710333865, "2024/3/13 12:44:25",  4,  -53,  1003,  0,  0,  -1,  -12,  -27,  -36
634275, 1710333865, "2024/3/13 12:44:25",  4,  -59,  1006,  0,  0,  0,  -12,  -25,  -36
634475, 1710333865, "2024/3/13 12:44:25",  7,  -62,  1002,  0,  0,  -1,  -11,  -25,  -37
634675, 1710333866, "2024/3/13 12:44:26",  4,  -60,  1006,  0,  0,  0,  -11,  -25,  -37
634875, 1710333866, "2024/3/13 12:44:26",  -1,  -58,  1002,  0,  0,  0,  -11,  -27,  -36
635075, 1710333866, "2024/3/13 12:44:26",  1,  -65,  1004,  0,  0,  -1,  -11,  -27,  -37
635275, 1710333866, "2024/3/13 12:44:26",  4,  -59,  1003,  0,  0,  0,  -11,  -27,  -36
635475, 1710333866, "2024/3/13 12:44:26",  -2,  -55,  1004,  0,  0,  0,  -13,  -26,  -35
635675, 1710333867, "2024/3/13 12:44:27",  9,  -65,  1004,  0,  0,  -1,  -12,  -25,  -37
635875, 1710333867, "2024/3/13 12:44:27",  9,  -57,  1005,  0,  0,  0,  -11,  -27,  -36
636075, 1710333867, "2024/3/13 12:44:27",  5,  -54,  1007,  0,  0,  -1,  -11,  -27,  -36
636275, 1710333867, "2024/3/13 12:44:27",  2,  -66,  1005,  0,  0,  -1,  -11,  -26,  -38
636475, 1710333867, "2024/3/13 12:44:27",  7,  -56,  1005,  0,  0,  0,  -11,  -25,  -36
636675, 1710333868, "2024/3/13 12:44:28",  0,  -54,  1004,  0,  0,  -1,  -12,  -27,  -38
636875, 1710333868, "2024/3/13 12:44:28",  5,  -58,  1003,  0,  -1,  -1,  -9,  -26,  -36
637075, 1710333868, "2024/3/13 12:44:28",  7,  -60,  1002,  0,  0,  -1,  -12,  -26,  -37
637275, 1710333868, "2024/3/13 12:44:28",  1,  -58,  1002,  0,  0,  0,  -13,  -25,  -36
637475, 1710333868, "2024/3/13 12:44:28",  5,  -59,  1005,  0,  0,  -1,  -11,  -25,  -36
637675, 1710333869, "2024/3/13 12:44:29",  4,  -55,  1000,  0,  0,  0,  -11,  -26,  -39
637875, 1710333869, "2024/3/13 12:44:29",  4,  -60,  1007,  0,  0,  0,  -11,  -26,  -38
638075, 1710333869, "2024/3/13 12:44:29",  2,  -56,  1007,  0,  0,  0,  -11,  -28,  -37
638275, 1710333869, "2024/3/13 12:44:29",  4,  -56,  1005,  0,  0,  -1,  -11,  -27,  -36
638475, 1710333869, "2024/3/13 12:44:29",  4,  -59,  1004,  0,  0,  0,  -11,  -26,  -37
638675, 1710333870, "2024/3/13 12:44:30",  5,  -58,  1003,  0,  0,  -1,  -12,  -26,  -37
638875, 1710333870, "2024/3/13 12:44:30",  8,  -53,  1003,  0,  0,  -1,  -11,  -27,  -36
639075, 1710333870, "2024/3/13 12:44:30",  8,  -59,  1003,  0,  0,  0,  -9,  -26,  -37
639275, 1710333870, "2024/3/13 12:44:30",  4,  -59,  1005,  0,  -1,  0,  -12,  -26,  -37
639475, 1710333870, "2024/3/13 12:44:30",  -1,  -56,  1006,  0,  -1,  -1,  -13,  -26,  -37
639675, 1710333871, "2024/3/13 12:44:31",  7,  -56,  1002,  0,  0,  -1,  -11,  -25,  -37
639875, 1710333871, "2024/3/13 12:44:31",  2,  -60,  1005,  0,  0,  -1,  -11,  -27,  -35
640075, 1710333871, "2024/3/13 12:44:31",  5,  -57,  1004,  0,  0,  -1,  -11,  -27,  -36
640275, 1710333871, "2024/3/13 12:44:31",  6,  -59,  1006,  0,  0,  -1,  -12,  -25,  -36
640475, 1710333871, "2024/3/13 12:44:31",  8,  -57,  1003,  0,  0,  -1,  -11,  -27,  -36
640675, 1710333872, "2024/3/13 12:44:32",  6,  -64,  999,  0,  0,  -1,  -11,  -24,  -37
640875, 1710333872, "2024/3/13 12:44:32",  0,  -56,  1005,  0,  0,  -1,  -10,  -25,  -37
641075, 1710333872, "2024/3/13 12:44:32",  9,  -64,  1005,  0,  0,  -1,  -11,  -26,  -37
641275, 1710333872, "2024/3/13 12:44:32",  2,  -57,  1001,  0,  0,  0,  -13,  -27,  -36
641475, 1710333872, "2024/3/13 12:44:32",  7,  -58,  1003,  0,  0,  0,  -12,  -26,  -36
641675, 1710333873, "2024/3/13 12:44:33",  5,  -56,  1004,  0,  0,  0,  -12,  -26,  -37
641875, 1710333873, "2024/3/13 12:44:33",  9,  -61,  1004,  0,  0,  0,  -12,  -26,  -37
642075, 1710333873, "2024/3/13 12:44:33",  8,  -61,  1005,  0,  0,  0,  -12,  -26,  -36
642275, 1710333873, "2024/3/13 12:44:33",  2,  -57,  1001,  0,  0,  -1,  -11,  -26,  -36
642475, 1710333873, "2024/3/13 12:44:33",  5,  -57,  1006,  0,  0,  0,  -11,  -27,  -36
642675, 1710333874, "2024/3/13 12:44:34",  2,  -55,  1005,  0,  0,  -1,  -11,  -26,  -37
642875, 1710333874, "2024/3/13 12:44:34",  6,  -63,  1006,  0,  -1,  -1,  -13,  -26,  -38
643075, 1710333874, "2024/3/13 12:44:34",  5,  -55,  1007,  0,  0,  0,  -9,  -27,  -35
643275, 1710333874, "2024/3/13 12:44:34",  6,  -56,  1003,  0,  -1,  -1,  -11,  -24,  -36
643475, 1710333874, "2024/3/13 12:44:34",  2,  -57,  1005,  0,  0,  0,  -12,  -26,  -37
643675, 1710333875, "2024/3/13 12:44:35",  5,  -57,  1002,  0,  0,  0,  -10,  -27,  -37
643875, 1710333875, "2024/3/13 12:44:35",  1,  -56,  1002,  0,  0,  -1,  -12,  -25,  -38
644075, 1710333875, "2024/3/13 12:44:35",  0,  -57,  1006,  0,  0,  0,  -11,  -27,  -36
644275, 1710333875, "2024/3/13 12:44:35",  3,  -57,  1005,  0,  0,  0,  -12,  -27,  -35
644475, 1710333875, "2024/3/13 12:44:35",  7,  -58,  1003,  0,  0,  0,  -10,  -27,  -36
644675, 1710333876, "2024/3/13 12:44:36",  5,  -59,  1003,  0,  0,  -1,  -11,  -26,  -37
644875, 1710333876, "2024/3/13 12:44:36",  7,  -61,  1002,  0,  -1,  -1,  -11,  -27,  -36
645075, 1710333876, "2024/3/13 12:44:36",  5,  -58,  1006,  0,  0,  -1,  -11,  -25,  -37
645275, 1710333876, "2024/3/13 12:44:36",  5,  -58,  1004,  0,  0,  0,  -10,  -25,  -36
645475, 1710333876, "2024/3/13 12:44:36",  4,  -64,  1005,  0,  0,  -1,  -10,  -25,  -37
645675, 1710333877, "2024/3/13 12:44:37",  6,  -52,  1007,  0,  0,  -1,  -10,  -25,  -36
645875, 1710333877, "2024/3/13 12:44:37",  2,  -64,  1005,  0,  0,  -1,  -11,  -25,  -37
646075, 1710333877, "2024/3/13 12:44:37",  4,  -57,  1004,  0,  0,  0,  -12,  -25,  -36
646275, 1710333877, "2024/3/13 12:44:37",  5,  -52,  1006,  0,  0,  -1,  -13,  -26,  -37
646475, 1710333877, "2024/3/13 12:44:37",  6,  -55,  1001,  0,  0,  -1,  -11,  -26,  -38
646675, 1710333878, "2024/3/13 12:44:38",  4,  -56,  1004,  0,  0,  -1,  -12,  -26,  -36
646875, 1710333878, "2024/3/13 12:44:38",  4,  -58,  1002,  0,  0,  0,  -11,  -27,  -38
647075, 1710333878, "2024/3/13 12:44:38",  4,  -52,  1001,  0,  0,  -1,  -11,  -26,  -36
647275, 1710333878, "2024/3/13 12:44:38",  5,  -57,  1008,  0,  0,  -1,  -11,  -26,  -38
647475, 1710333878, "2024/3/13 12:44:38",  5,  -64,  1006,  0,  0,  0,  -13,  -25,  -38
647675, 1710333879, "2024/3/13 12:44:39",  8,  -56,  1007,  0,  0,  -1,  -10,  -26,  -37
647875, 1710333879, "2024/3/13 12:44:39",  8,  -60,  1006,  0,  0,  -1,  -12,  -27,  -37
648075, 1710333879, "2024/3/13 12:44:39",  8,  -60,  1003,  0,  0,  -1,  -12,  -27,  -36
648275, 1710333879, "2024/3/13 12:44:39",  5,  -56,  1003,  0,  0,  -1,  -12,  -25,  -36
648475, 1710333879, "2024/3/13 12:44:39",  4,  -55,  1006,  0,  0,  -1,  -10,  -25,  -36
648675, 1710333880, "2024/3/13 12:44:40",  4,  -56,  1001,  0,  0,  0,  -11,  -24,  -39
648875, 1710333880, "2024/3/13 12:44:40",  0,  -55,  1002,  0,  -1,  -1,  -12,  -27,  -36
649075, 1710333880, "2024/3/13 12:44:40",  4,  -54,  1007,  0,  0,  -1,  -11,  -28,  -36
649275, 1710333880, "2024/3/13 12:44:40",  7,  -58,  1001,  0,  0,  -1,  -11,  -27,  -38
649475, 1710333880, "2024/3/13 12:44:40",  5,  -56,  1003,  0,  0,  -1,  -11,  -26,  -36
649675, 1710333881, "2024/3/13 12:44:41",  2,  -57,  1002,  0,  0,  0,  -10,  -27,  -36
649875, 1710333881, "2024/3/13 12:44:41",  6,  -61,  999,  0,  -1,  0,  -11,  -25,  -36
650075, 1710333881, "2024/3/13 12:44:41",  4,  -55,  1006,  0,  0,  -1,  -10,  -26,  -37
650275, 1710333881, "2024/3/13 12:44:41",  3,  -60,  1004,  0,  0,  -1,  -13,  -25,  -36
650475, 1710333881, "2024/3/13 12:44:41",  4,  -56,  1004,  0,  0,  -1,  -12,  -27,  -37
650675, 1710333882, "2024/3/13 12:44:42",  4,  -63,  1005,  0,  0,  -1,  -11,  -26,  -36
650875, 1710333882, "2024/3/13 12:44:42",  1,  -55,  1003,  0,  0,  -1,  -10,  -26,  -38
651075, 1710333882, "2024/3/13 12:44:42",  5,  -57,  1004,  0,  0,  -1,  -11,  -25,  -37
651275, 1710333882, "2024/3/13 12:44:42",  8,  -60,  1004,  0,  0,  0,  -9,  -27,  -37
651475, 1710333882, "2024/3/13 12:44:42",  7,  -57,  1002,  0,  0,  0,  -12,  -28,  -36
651675, 1710333883, "2024/3/13 12:44:43",  1,  -61,  1004,  0,  0,  -1,  -11,  -27,  -37
651875, 1710333883, "2024/3/13 12:44:43",  7,  -52,  1004,  0,  0,  -1,  -12,  -26,  -36
652075, 1710333883, "2024/3/13 12:44:43",  6,  -53,  1005,  0,  0,  0,  -11,  -25,  -37
652275, 1710333883, "2024/3/13 12:44:43",  4,  -58,  1004,  0,  -1,  -1,  -11,  -27,  -37
652475, 1710333883, "2024/3/13 12:44:43",  6,  -56,  1005,  0,  0,  -1,  -10,  -26,  -36
652675, 1710333884, "2024/3/13 12:44:44",  7,  -53,  1002,  0,  0,  0,  -12,  -27,  -37
652875, 1710333884, "2024/3/13 12:44:44",  5,  -55,  1002,  0,  0,  0,  -12,  -25,  -36
653075, 1710333884, "2024/3/13 12:44:44",  6,  -58,  1003,  0,  0,  0,  -11,  -27,  -37
653275, 1710333884, "2024/3/13 12:44:44",  5,  -54,  1003,  0,  0,  -1,  -12,  -27,  -36
653475, 1710333884, "2024/3/13 12:44:44",  5,  -57,  1002,  0,  0,  -1,  -11,  -26,  -36
653675, 1710333885, "2024/3/13 12:44:45",  5,  -53,  1003,  0,  0,  -1,  -10,  -26,  -37
653875, 1710333885, "2024/3/13 12:44:45",  2,  -58,  1003,  0,  0,  -1,  -12,  -26,  -36
654075, 1710333885, "2024/3/13 12:44:45",  2,  -59,  1003,  0,  0,  0,  -10,  -26,  -36
654275, 1710333885, "2024/3/13 12:44:45",  5,  -52,  1009,  0,  0,  -1,  -13,  -27,  -36
654475, 1710333885, "2024/3/13 12:44:45",  8,  -56,  1004,  0,  0,  0,  -10,  -27,  -37
654675, 1710333886, "2024/3/13 12:44:46",  5,  -60,  1001,  0,  0,  -1,  -11,  -27,  -37
654875, 1710333886, "2024/3/13 12:44:46",  3,  -59,  1005,  0,  0,  -1,  -11,  -27,  -37
655075, 1710333886, "2024/3/13 12:44:46",  4,  -62,  1003,  0,  0,  -1,  -11,  -25,  -37
655275, 1710333886, "2024/3/13 12:44:46",  4,  -62,  1004,  0,  -1,  -1,  -10,  -26,  -37
655475, 1710333886, "2024/3/13 12:44:46",  6,  -55,  1002,  0,  -1,  0,  -12,  -26,  -37
655675, 1710333887, "2024/3/13 12:44:47",  4,  -61,  1003,  0,  0,  -1,  -11,  -27,  -37
655875, 1710333887, "2024/3/13 12:44:47",  8,  -59,  1008,  0,  0,  -1,  -10,  -26,  -37
656075, 1710333887, "2024/3/13 12:44:47",  4,  -55,  1003,  0,  0,  -1,  -9,  -27,  -37
656275, 1710333887, "2024/3/13 12:44:47",  6,  -51,  1006,  0,  0,  -1,  -13,  -27,  -37
656475, 1710333887, "2024/3/13 12:44:47",  7,  -57,  1002,  0,  -1,  -1,  -11,  -26,  -36
656675, 1710333888, "2024/3/13 12:44:48",  9,  -59,  1004,  0,  -1,  -1,  -11,  -26,  -37
656875, 1710333888, "2024/3/13 12:44:48",  4,  -59,  1001,  0,  0,  0,  -12,  -26,  -36
657075, 1710333888, "2024/3/13 12:44:48",  4,  -57,  1003,  0,  0,  -1,  -10,  -26,  -36
657275, 1710333888, "2024/3/13 12:44:48",  4,  -59,  1005,  0,  0,  -1,  -11,  -28,  -37
657475, 1710333888, "2024/3/13 12:44:48",  5,  -58,  1004,  0,  0,  -1,  -10,  -25,  -38
657675, 1710333889, "2024/3/13 12:44:49",  3,  -61,  1005,  0,  0,  0,  -9,  -27,  -36
657875, 1710333889, "2024/3/13 12:44:49",  6,  -54,  1003,  0,  0,  -1,  -11,  -26,  -38
658075, 1710333889, "2024/3/13 12:44:49",  7,  -58,  1001,  0,  0,  0,  -13,  -27,  -37
658275, 1710333889, "2024/3/13 12:44:49",  2,  -60,  1005,  0,  0,  -1,  -13,  -27,  -37
658475, 1710333889, "2024/3/13 12:44:49",  4,  -56,  1001,  0,  0,  -1,  -10,  -26,  -36
658675, 1710333890, "2024/3/13 12:44:50",  1,  -59,  1003,  0,  0,  -1,  -11,  -27,  -35
658875, 1710333890, "2024/3/13 12:44:50",  4,  -53,  1001,  0,  0,  0,  -11,  -26,  -36
659075, 1710333890, "2024/3/13 12:44:50",  1,  -58,  1006,  0,  0,  -1,  -11,  -26,  -36
659275, 1710333890, "2024/3/13 12:44:50",  -1,  -55,  1006,  0,  0,  -1,  -12,  -26,  -36
659475, 1710333890, "2024/3/13 12:44:50",  2,  -58,  1003,  0,  0,  -1,  -11,  -27,  -37
659675, 1710333891, "2024/3/13 12:44:51",  3,  -60,  1005,  0,  -1,  0,  -10,  -26,  -36
659875, 1710333891, "2024/3/13 12:44:51",  6,  -59,  1005,  0,  0,  -1,  -11,  -26,  -37
660075, 1710333891, "2024/3/13 12:44:51",  1,  -57,  1007,  0,  0,  0,  -11,  -27,  -35
660275, 1710333891, "2024/3/13 12:44:51",  3,  -58,  1005,  0,  0,  -1,  -11,  -28,  -37
660475, 1710333891, "2024/3/13 12:44:51",  6,  -59,  1001,  0,  0,  0,  -13,  -27,  -36
660675, 1710333892, "2024/3/13 12:44:52",  2,  -61,  1003,  0,  0,  -1,  -11,  -26,  -36
660875, 1710333892, "2024/3/13 12:44:52",  6,  -56,  1004,  0,  0,  -1,  -11,  -24,  -36
661075, 1710333892, "2024/3/13 12:44:52",  2,  -59,  1002,  0,  0,  -1,  -11,  -27,  -37
661275, 1710333892, "2024/3/13 12:44:52",  3,  -58,  1007,  0,  0,  -1,  -11,  -27,  -37
661475, 1710333892, "2024/3/13 12:44:52",  4,  -56,  1005,  0,  0,  0,  -11,  -26,  -35
661675, 1710333893, "2024/3/13 12:44:53",  5,  -59,  1003,  0,  0,  0,  -11,  -26,  -38
661875, 1710333893, "2024/3/13 12:44:53",  5,  -59,  1003,  0,  0,  0,  -11,  -26,  -36
662075, 1710333893, "2024/3/13 12:44:53",  4,  -60,  1005,  0,  0,  0,  -12,  -25,  -36
662275, 1710333893, "2024/3/13 12:44:53",  2,  -56,  1006,  0,  0,  -1,  -11,  -26,  -38
662475, 1710333893, "2024/3/13 12:44:53",  7,  -58,  1000,  0,  0,  0,  -12,  -26,  -37
662675, 1710333894, "2024/3/13 12:44:54",  5,  -60,  1003,  0,  0,  -1,  -11,  -26,  -37
662875, 1710333894, "2024/3/13 12:44:54",  5,  -60,  1003,  0,  0,  0,  -12,  -26,  -37
663075, 1710333894, "2024/3/13 12:44:54",  5,  -57,  1004,  0,  0,  -1,  -11,  -27,  -36
663275, 1710333894, "2024/3/13 12:44:54",  3,  -62,  1007,  0,  -1,  -1,  -12,  -25,  -36
663475, 1710333894, "2024/3/13 12:44:54",  4,  -61,  1006,  0,  -1,  -1,  -11,  -25,  -37
663675, 1710333895, "2024/3/13 12:44:55",  0,  -57,  1004,  0,  0,  0,  -11,  -27,  -37
663875, 1710333895, "2024/3/13 12:44:55",  5,  -51,  1002,  0,  0,  -1,  -12,  -27,  -36
664075, 1710333895, "2024/3/13 12:44:55",  6,  -57,  1002,  0,  0,  -1,  -12,  -27,  -37
664275, 1710333895, "2024/3/13 12:44:55",  2,  -57,  1006,  0,  0,  -1,  -11,  -28,  -37
664475, 1710333895, "2024/3/13 12:44:55",  9,  -62,  1000,  0,  -1,  -1,  -12,  -26,  -36
664675, 1710333896, "2024/3/13 12:44:56",  6,  -62,  1004,  0,  0,  -1,  -11,  -26,  -36
664875, 1710333896, "2024/3/13 12:44:56",  2,  -58,  1004,  0,  0,  -1,  -10,  -26,  -36
665075, 1710333896, "2024/3/13 12:44:56",  5,  -59,  1004,  0,  0,  -1,  -12,  -26,  -38
665275, 1710333896, "2024/3/13 12:44:56",  3,  -57,  1007,  0,  -1,  -1,  -11,  -25,  -38
665475, 1710333896, "2024/3/13 12:44:56",  4,  -62,  1007,  0,  0,  0,  -11,  -25,  -37
665675, 1710333897, "2024/3/13 12:44:57",  2,  -62,  1003,  0,  0,  -1,  -12,  -26,  -38
665875, 1710333897, "2024/3/13 12:44:57",  2,  -59,  999,  0,  -1,  0,  -11,  -25,  -37
666075, 1710333897, "2024/3/13 12:44:57",  4,  -62,  1003,  0,  -1,  -1,  -11,  -26,  -38
666275, 1710333897, "2024/3/13 12:44:57",  10,  -51,  1004,  0,  0,  -1,  -12,  -25,  -37
666475, 1710333897, "2024/3/13 12:44:57",  4,  -56,  1006,  0,  -1,  -1,  -13,  -24,  -38
666675, 1710333898, "2024/3/13 12:44:58",  9,  -64,  1004,  0,  0,  0,  -10,  -25,  -37
666875, 1710333898, "2024/3/13 12:44:58",  -1,  -54,  1003,  0,  0,  -1,  -10,  -24,  -37
667075, 1710333898, "2024/3/13 12:44:58",  0,  -64,  1004,  0,  -1,  -1,  -12,  -26,  -37
667275, 1710333898, "2024/3/13 12:44:58",  -1,  -58,  1003,  0,  -1,  -1,  -11,  -26,  -37
667475, 1710333898, "2024/3/13 12:44:58",  5,  -58,  1004,  0,  0,  -1,  -11,  -25,  -37
667675, 1710333899, "2024/3/13 12:44:59",  3,  -54,  1003,  0,  0,  0,  -10,  -26,  -37
667875, 1710333899, "2024/3/13 12:44:59",  8,  -54,  1005,  0,  0,  -1,  -12,  -27,  -38
668075, 1710333899, "2024/3/13 12:44:59",  6,  -63,  1003,  0,  0,  -1,  -11,  -26,  -36
668275, 1710333899, "2024/3/13 12:44:59",  7,  -61,  1005,  0,  0,  0,  -13,  -26,  -37
668475, 1710333899, "2024/3/13 12:44:59",  2,  -59,  1003,  0,  0,  0,  -12,  -26,  -36
668675, 1710333900, "2024/3/13 12:45:0",  8,  -62,  1008,  0,  0,  -1,  -11,  -26,  -35
668875, 1710333900, "2024/3/13 12:45:0",  11,  -64,  1001,  1,  0,  -1,  -13,  -27,  -36
669075, 1710333900, "2024/3/13 12:45:0",  8,  -53,  999,  0,  0,  -1,  -11,  -26,  -35
669275, 1710333900, "2024/3/13 12:45:0",  7,  -53,  1004,  0,  0,  -1,  -12,  -27,  -35
669475, 1710333900, "2024/3/13 12:45:0",  9,  -60,  1005,  0,  0,  -1,  -13,  -26,  -36
669675, 1710333901, "2024/3/13 12:45:1",  12,  -65,  1002,  0,  0,  0,  -11,  -25,  -36
669875, 1710333901, "2024/3/13 12:45:1",  8,  -58,  1002,  0,  0,  0,  -13,  -25,  -36
670075, 1710333901, "2024/3/13 12:45:1",  11,  -58,  1003,  0,  0,  -1,  -11,  -27,  -36
670275, 1710333901, "2024/3/13 12:45:1",  5,  -54,  1004,  0,  0,  0,  -12,  -26,  -37
670475, 1710333901, "2024/3/13 12:45:1",  2,  -60,  1001,  0,  0,  -1,  -13,  -25,  -37
670675, 1710333902, "2024/3/13 12:45:2",  2,  -60,  1005,  0,  0,  0,  -11,  -25,  -37
670875, 1710333902, "2024/3/13 12:45:2",  2,  -60,  1005,  0,  0,  -1,  -11,  -25,  -36
671075, 1710333902, "2024/3/13 12:45:2",  1,  -53,  999,  0,  -1,  -1,  -13,  -27,  -36
671275, 1710333902, "2024/3/13 12:45:2",  3,  -59,  1002,  1,  0,  -1,  -10,  -27,  -37
671475, 1710333902, "2024/3/13 12:45:2",  2,  -56,  1002,  0,  0,  0,  -12,  -27,  -37
671675, 1710333903, "2024/3/13 12:45:3",  1,  -59,  1003,  0,  0,  -1,  -12,  -25,  -36
671875, 1710333903, "2024/3/13 12:45:3",  5,  -61,  1002,  0,  0,  0,  -11,  -25,  -36
672075, 1710333903, "2024/3/13 12:45:3",  5,  -56,  1002,  0,  0,  -1,  -12,  -26,  -37
672275, 1710333903, "2024/3/13 12:45:3",  6,  -56,  1002,  0,  0,  -1,  -11,  -26,  -36
672475, 1710333903, "2024/3/13 12:45:3",  0,  -55,  1005,  0,  -1,  0,  -11,  -26,  -36
672675, 1710333904, "2024/3/13 12:45:4",  6,  -54,  1004,  0,  0,  0,  -14,  -27,  -37
672875, 1710333904, "2024/3/13 12:45:4",  4,  -55,  1003,  0,  -1,  0,  -11,  -24,  -34
673075, 1710333904, "2024/3/13 12:45:4",  2,  -67,  1006,  0,  0,  -1,  -12,  -26,  -36
673275, 1710333904, "2024/3/13 12:45:4",  6,  -57,  1002,  0,  0,  -1,  -10,  -26,  -36
673475, 1710333904, "2024/3/13 12:45:4",  2,  -63,  1004,  0,  0,  0,  -11,  -27,  -37
673675, 1710333905, "2024/3/13 12:45:5",  10,  -55,  1003,  0,  0,  -1,  -12,  -26,  -37
673875, 1710333905, "2024/3/13 12:45:5",  4,  -53,  1004,  0,  0,  0,  -12,  -27,  -35
674075, 1710333905, "2024/3/13 12:45:5",  0,  -60,  1004,  0,  0,  -1,  -12,  -26,  -36
674275, 1710333905, "2024/3/13 12:45:5",  5,  -59,  1007,  0,  0,  -1,  -12,  -25,  -36
674475, 1710333905, "2024/3/13 12:45:5",  3,  -55,  1002,  0,  0,  -1,  -10,  -25,  -36
674675, 1710333906, "2024/3/13 12:45:6",  6,  -52,  1005,  0,  0,  -1,  -12,  -28,  -35
674875, 1710333906, "2024/3/13 12:45:6",  6,  -55,  1004,  0,  0,  0,  -11,  -27,  -36
675075, 1710333906, "2024/3/13 12:45:6",  5,  -56,  1006,  0,  0,  -1,  -13,  -28,  -35
675275, 1710333906, "2024/3/13 12:45:6",  5,  -58,  1002,  0,  0,  0,  -11,  -25,  -35
675475, 1710333906, "2024/3/13 12:45:6",  2,  -55,  1004,  0,  0,  -1,  -11,  -24,  -36
675675, 1710333907, "2024/3/13 12:45:7",  0,  -65,  1003,  1,  0,  0,  -12,  -27,  -36
675875, 1710333907, "2024/3/13 12:45:7",  7,  -60,  1003,  0,  -1,  -1,  -11,  -24,  -37
676075, 1710333907, "2024/3/13 12:45:7",  6,  -53,  1006,  0,  0,  0,  -11,  -25,  -36
676275, 1710333907, "2024/3/13 12:45:7",  3,  -56,  998,  0,  0,  0,  -10,  -25,  -36
676475, 1710333907, "2024/3/13 12:45:7",  2,  -56,  1007,  0,  0,  -1,  -12,  -27,  -37
676675, 1710333908, "2024/3/13 12:45:8",  3,  -60,  1005,  0,  0,  0,  -11,  -26,  -37
676875, 1710333908, "2024/3/13 12:45:8",  2,  -57,  1004,  0,  0,  -1,  -12,  -26,  -36
677075, 1710333908, "2024/3/13 12:45:8",  3,  -57,  1000,  0,  0,  -1,  -12,  -26,  -36
677275, 1710333908, "2024/3/13 12:45:8",  4,  -56,  1005,  0,  0,  0,  -13,  -25,  -36
677475, 1710333908, "2024/3/13 12:45:8",  3,  -58,  1001,  0,  0,  -1,  -13,  -27,  -35
677675, 1710333909, "2024/3/13 12:45:9",  3,  -57,  1003,  0,  0,  -1,  -10,  -27,  -37
677875, 1710333909, "2024/3/13 12:45:9",  5,  -59,  999,  0,  0,  0,  -12,  -26,  -36
678075, 1710333909, "2024/3/13 12:45:9",  5,  -62,  1002,  0,  0,  -1,  -12,  -26,  -36
678275, 1710333909, "2024/3/13 12:45:9",  5,  -53,  1006,  0,  0,  -1,  -13,  -27,  -36
678475, 1710333909, "2024/3/13 12:45:9",  5,  -57,  1007,  0,  0,  -1,  -12,  -26,  -36
678675, 1710333910, "2024/3/13 12:45:10",  3,  -59,  1004,  0,  0,  0,  -11,  -26,  -36
678875, 1710333910, "2024/3/13 12:45:10",  3,  -58,  1006,  0,  0,  -1,  -12,  -26,  -36
679075, 1710333910, "2024/3/13 12:45:10",  10,  -58,  1003,  0,  -1,  -1,  -11,  -26,  -36
679275, 1710333910, "2024/3/13 12:45:10",  2,  -58,  1004,  0,  -1,  -1,  -11,  -25,  -36
679475, 1710333910, "2024/3/13 12:45:10",  8,  -50,  1004,  0,  0,  -1,  -12,  -24,  -37
679675, 1710333911, "2024/3/13 12:45:11",  0,  -54,  1002,  0,  0,  -1,  -12,  -26,  -36
679875, 1710333911, "2024/3/13 12:45:11",  6,  -57,  1002,  0,  0,  -1,  -13,  -27,  -38
680075, 1710333911, "2024/3/13 12:45:11",  9,  -52,  1003,  0,  0,  -1,  -11,  -26,  -36
680275, 1710333911, "2024/3/13 12:45:11",  4,  -54,  1000,  0,  0,  0,  -11,  -26,  -36
680475, 1710333911, "2024/3/13 12:45:11",  5,  -58,  1004,  0,  0,  -1,  -11,  -26,  -37
680675, 1710333912, "2024/3/13 12:45:12",  3,  -58,  1009,  0,  0,  0,  -11,  -24,  -36
680875, 1710333912, "2024/3/13 12:45:12",  5,  -57,  1004,  0,  0,  -1,  -12,  -27,  -35
681075, 1710333912, "2024/3/13 12:45:12",  5,  -55,  1003,  0,  0,  -1,  -11,  -26,  -36
681275, 1710333912, "2024/3/13 12:45:12",  3,  -55,  1007,  0,  0,  -1,  -12,  -27,  -36
681475, 1710333912, "2024/3/13 12:45:12",  6,  -59,  1006,  0,  0,  -1,  -11,  -25,  -36
681675, 1710333913, "2024/3/13 12:45:13",  1,  -61,  1000,  0,  0,  -1,  -11,  -26,  -37
681875, 1710333913, "2024/3/13 12:45:13",  4,  -56,  1001,  0,  0,  -1,  -13,  -26,  -35
682075, 1710333913, "2024/3/13 12:45:13",  6,  -60,  1002,  0,  -1,  -1,  -12,  -27,  -36
682275, 1710333913, "2024/3/13 12:45:13",  4,  -56,  1008,  0,  0,  -1,  -12,  -26,  -37
682475, 1710333913, "2024/3/13 12:45:13",  5,  -56,  1007,  0,  0,  -1,  -11,  -26,  -36
682675, 1710333914, "2024/3/13 12:45:14",  6,  -53,  1005,  0,  0,  0,  -12,  -26,  -36
682875, 1710333914, "2024/3/13 12:45:14",  6,  -61,  1006,  0,  0,  -1,  -12,  -26,  -35
683075, 1710333914, "2024/3/13 12:45:14",  10,  -58,  1001,  0,  0,  0,  -12,  -28,  -36
683275, 1710333914, "2024/3/13 12:45:14",  2,  -56,  1000,  0,  0,  -1,  -12,  -27,  -36
683475, 1710333914, "2024/3/13 12:45:14",  7,  -61,  1003,  0,  0,  0,  -12,  -25,  -37
683675, 1710333915, "2024/3/13 12:45:15",  6,  -56,  1004,  0,  0,  -1,  -13,  -27,  -34
683875, 1710333915, "2024/3/13 12:45:15",  4,  -65,  1005,  0,  0,  -1,  -12,  -26,  -36
684075, 1710333915, "2024/3/13 12:45:15",  8,  -57,  1002,  0,  0,  -1,  -10,  -26,  -36
684275, 1710333915, "2024/3/13 12:45:15",  7,  -56,  1003,  0,  0,  -1,  -10,  -27,  -36
684475, 1710333915, "2024/3/13 12:45:15",  10,  -58,  1004,  0,  0,  0,  -11,  -25,  -37
684675, 1710333916, "2024/3/13 12:45:16",  2,  -53,  1005,  0,  -1,  0,  -12,  -24,  -35
684875, 1710333916, "2024/3/13 12:45:16",  6,  -51,  1005,  0,  0,  0,  -10,  -26,  -36
685075, 1710333916, "2024/3/13 12:45:16",  4,  -54,  1004,  0,  0,  -1,  -11,  -25,  -36
685275, 1710333916, "2024/3/13 12:45:16",  9,  -59,  1002,  0,  0,  0,  -13,  -27,  -35
685475, 1710333916, "2024/3/13 12:45:16",  8,  -60,  1007,  0,  0,  -1,  -12,  -25,  -36
685675, 1710333917, "2024/3/13 12:45:17",  8,  -51,  1001,  0,  0,  -1,  -11,  -25,  -37
685875, 1710333917, "2024/3/13 12:45:17",  6,  -55,  1002,  0,  0,  -1,  -11,  -25,  -37
686075, 1710333917, "2024/3/13 12:45:17",  5,  -52,  1002,  0,  0,  0,  -12,  -25,  -37
686275, 1710333917, "2024/3/13 12:45:17",  6,  -57,  1006,  0,  0,  0,  -11,  -26,  -36
686475, 1710333917, "2024/3/13 12:45:17",  6,  -62,  1004,  0,  0,  -1,  -13,  -26,  -37
686675, 1710333918, "2024/3/13 12:45:18",  8,  -51,  1005,  0,  0,  -1,  -12,  -25,  -35
686875, 1710333918, "2024/3/13 12:45:18",  7,  -62,  1007,  0,  0,  -1,  -10,  -27,  -36
687075, 1710333918, "2024/3/13 12:45:18",  5,  -56,  1005,  0,  0,  -1,  -13,  -26,  -37
687275, 1710333918, "2024/3/13 12:45:18",  4,  -55,  1005,  0,  0,  -1,  -11,  -27,  -37
687475, 1710333918, "2024/3/13 12:45:18",  2,  -60,  1001,  0,  0,  -1,  -12,  -25,  -37
687675, 1710333919, "2024/3/13 12:45:19",  4,  -60,  1003,  0,  0,  0,  -11,  -25,  -37
687875, 1710333919, "2024/3/13 12:45:19",  0,  -55,  1002,  0,  0,  -1,  -12,  -26,  -37
688075, 1710333919, "2024/3/13 12:45:19",  5,  -55,  1006,  0,  0,  -1,  -12,  -25,  -35
688275, 1710333919, "2024/3/13 12:45:19",  7,  -53,  1007,  0,  0,  0,  -12,  -25,  -36
688475, 1710333919, "2024/3/13 12:45:19",  1,  -55,  1002,  0,  0,  -1,  -12,  -27,  -36
688675, 1710333920, "2024/3/13 12:45:20",  6,  -60,  1005,  0,  0,  -1,  -11,  -27,  -36
688875, 1710333920, "2024/3/13 12:45:20",  3,  -55,  1004,  0,  0,  0,  -11,  -25,  -38
689075, 1710333920, "2024/3/13 12:45:20",  5,  -60,  1001,  0,  0,  -1,  -11,  -26,  -36
689275, 1710333920, "2024/3/13 12:45:20",  0,  -55,  1007,  0,  0,  -1,  -13,  -25,  -37
689475, 1710333920, "2024/3/13 12:45:20",  6,  -57,  1002,  0,  0,  -1,  -11,  -26,  -36
689675, 1710333921, "2024/3/13 12:45:21",  3,  -53,  1005,  0,  -1,  -1,  -11,  -27,  -36
689875, 1710333921, "2024/3/13 12:45:21",  8,  -57,  1005,  0,  0,  -1,  -12,  -27,  -37
690075, 1710333921, "2024/3/13 12:45:21",  4,  -57,  1007,  0,  0,  -1,  -13,  -26,  -38
690275, 1710333921, "2024/3/13 12:45:21",  6,  -54,  1004,  0,  0,  -1,  -12,  -27,  -36
690475, 1710333921, "2024/3/13 12:45:21",  5,  -58,  1007,  0,  0,  -1,  -11,  -26,  -36
690675, 1710333922, "2024/3/13 12:45:22",  0,  -58,  1003,  0,  0,  0,  -12,  -26,  -37
690875, 1710333922, "2024/3/13 12:45:22",  7,  -54,  1003,  0,  0,  0,  -13,  -27,  -35
691075, 1710333922, "2024/3/13 12:45:22",  5,  -57,  1004,  0,  0,  -1,  -11,  -27,  -36
691275, 1710333922, "2024/3/13 12:45:22",  6,  -60,  1003,  0,  0,  -1,  -12,  -26,  -36
691475, 1710333922, "2024/3/13 12:45:22",  6,  -54,  1003,  0,  0,  -1,  -11,  -26,  -37
691675, 1710333923, "2024/3/13 12:45:23",  1,  -55,  1003,  0,  0,  -1,  -12,  -26,  -37
691875, 1710333923, "2024/3/13 12:45:23",  7,  -53,  1004,  0,  0,  -1,  -11,  -26,  -35
692075, 1710333923, "2024/3/13 12:45:23",  2,  -62,  1008,  0,  0,  -1,  -12,  -25,  -37
692275, 1710333923, "2024/3/13 12:45:23",  8,  -61,  1002,  0,  0,  -1,  -11,  -27,  -37
692475, 1710333923, "2024/3/13 12:45:23",  5,  -61,  1006,  0,  0,  0,  -14,  -25,  -36
692675, 1710333924, "2024/3/13 12:45:24",  3,  -55,  1002,  0,  -1,  -1,  -12,  -25,  -37
692875, 1710333924, "2024/3/13 12:45:24",  4,  -55,  1003,  0,  0,  0,  -10,  -27,  -37
693075, 1710333924, "2024/3/13 12:45:24",  4,  -54,  1009,  0,  0,  0,  -11,  -27,  -36
693275, 1710333924, "2024/3/13 12:45:24",  5,  -59,  1003,  0,  0,  0,  -12,  -26,  -36
693475, 1710333924, "2024/3/13 12:45:24",  2,  -53,  1007,  0,  0,  0,  -11,  -27,  -37
693675, 1710333925, "2024/3/13 12:45:25",  8,  -57,  1005,  0,  0,  -1,  -11,  -25,  -36
693875, 1710333925, "2024/3/13 12:45:25",  8,  -56,  1000,  0,  0,  -1,  -11,  -27,  -35
694075, 1710333925, "2024/3/13 12:45:25",  0,  -56,  1003,  0,  0,  0,  -13,  -26,  -37
694275, 1710333925, "2024/3/13 12:45:25",  1,  -60,  1005,  0,  0,  -1,  -12,  -26,  -35
694475, 1710333925, "2024/3/13 12:45:25",  1,  -55,  1005,  0,  -1,  -1,  -11,  -24,  -37
694675, 1710333926, "2024/3/13 12:45:26",  0,  -55,  1003,  0,  0,  -1,  -13,  -27,  -35
694875, 1710333926, "2024/3/13 12:45:26",  4,  -59,  1006,  0,  0,  -1,  -11,  -26,  -35
695075, 1710333926, "2024/3/13 12:45:26",  4,  -60,  1005,  0,  0,  -1,  -11,  -27,  -35
695275, 1710333926, "2024/3/13 12:45:26",  3,  -56,  1001,  0,  -1,  0,  -11,  -26,  -36
695475, 1710333926, "2024/3/13 12:45:26",  5,  -56,  1007,  0,  0,  -1,  -12,  -26,  -35
695675, 1710333927, "2024/3/13 12:45:27",  8,  -57,  1001,  0,  0,  0,  -12,  -26,  -36
695875, 1710333927, "2024/3/13 12:45:27",  6,  -56,  1002,  0,  0,  -1,  -12,  -27,  -36
696075, 1710333927, "2024/3/13 12:45:27",  7,  -63,  1002,  0,  0,  0,  -11,  -27,  -37
696275, 1710333927, "2024/3/13 12:45:27",  -2,  -52,  1004,  0,  0,  -1,  -11,  -26,  -36
696475, 1710333927, "2024/3/13 12:45:27",  6,  -63,  1002,  0,  0,  0,  -12,  -27,  -37
696675, 1710333928, "2024/3/13 12:45:28",  3,  -55,  1005,  0,  -1,  0,  -12,  -26,  -36
696875, 1710333928, "2024/3/13 12:45:28",  2,  -58,  1005,  0,  -1,  -1,  -11,  -26,  -35
697075, 1710333928, "2024/3/13 12:45:28",  5,  -56,  1004,  0,  0,  -1,  -11,  -26,  -36
697275, 1710333928, "2024/3/13 12:45:28",  9,  -59,  1006,  0,  0,  -1,  -12,  -27,  -36
697475, 1710333928, "2024/3/13 12:45:28",  2,  -59,  1002,  0,  -1,  -1,  -13,  -24,  -36
697675, 1710333929, "2024/3/13 12:45:29",  4,  -62,  1004,  0,  0,  0,  -13,  -26,  -36
697875, 1710333929, "2024/3/13 12:45:29",  8,  -55,  1003,  0,  0,  0,  -12,  -26,  -37
698075, 1710333929, "2024/3/13 12:45:29",  7,  -55,  1005,  0,  0,  -1,  -9,  -27,  -37
698275, 1710333929, "2024/3/13 12:45:29",  4,  -55,  1006,  0,  0,  0,  -12,  -25,  -37
698475, 1710333929, "2024/3/13 12:45:29",  4,  -59,  1007,  0,  0,  -1,  -12,  -25,  -37
698675, 1710333930, "2024/3/13 12:45:30",  2,  -58,  1003,  0,  0,  -1,  -11,  -27,  -37
698875, 1710333930, "2024/3/13 12:45:30",  3,  -58,  1006,  0,  0,  0,  -13,  -25,  -36
699075, 1710333930, "2024/3/13 12:45:30",  9,  -59,  1004,  0,  0,  -1,  -13,  -26,  -36
699275, 1710333930, "2024/3/13 12:45:30",  5,  -60,  1003,  0,  -1,  -1,  -11,  -25,  -37
699475, 1710333930, "2024/3/13 12:45:30",  8,  -60,  1003,  0,  -1,  -1,  -12,  -25,  -36
699675, 1710333931, "2024/3/13 12:45:31",  5,  -63,  1000,  0,  -1,  -1,  -12,  -24,  -36
699875, 1710333931, "2024/3/13 12:45:31",  3,  -52,  1003,  0,  0,  0,  -11,  -25,  -36
700075, 1710333931, "2024/3/13 12:45:31",  5,  -57,  1005,  0,  0,  -1,  -11,  -26,  -35
700275, 1710333931, "2024/3/13 12:45:31",  4,  -53,  1004,  0,  0,  -1,  -12,  -24,  -37
700475, 1710333931, "2024/3/13 12:45:31",  5,  -57,  1004,  0,  0,  -1,  -10,  -26,  -37
700675, 1710333932, "2024/3/13 12:45:32",  4,  -63,  1003,  0,  0,  0,  -12,  -25,  -36
700875, 1710333932, "2024/3/13 12:45:32",  7,  -61,  1001,  0,  0,  -1,  -12,  -26,  -36
701075, 1710333932, "2024/3/13 12:45:32",  4,  -62,  1006,  0,  0,  0,  -11,  -26,  -36
701275, 1710333932, "2024/3/13 12:45:32",  2,  -64,  1003,  0,  0,  0,  -11,  -27,  -36
701475, 1710333932, "2024/3/13 12:45:32",  5,  -53,  1007,  0,  0,  -1,  -11,  -25,  -37
701675, 1710333933, "2024/3/13 12:45:33",  4,  -56,  1000,  0,  0,  0,  -11,  -26,  -35
701875, 1710333933, "2024/3/13 12:45:33",  4,  -53,  1002,  0,  0,  0,  -13,  -26,  -37
702075, 1710333933, "2024/3/13 12:45:33",  6,  -56,  1005,  0,  0,  0,  -11,  -26,  -35
702275, 1710333933, "2024/3/13 12:45:33",  4,  -62,  1004,  0,  0,  0,  -11,  -26,  -35
702475, 1710333933, "2024/3/13 12:45:33",  9,  -57,  1003,  0,  0,  -1,  -11,  -26,  -36
702675, 1710333934, "2024/3/13 12:45:34",  7,  -56,  1004,  0,  0,  -1,  -12,  -23,  -36
702875, 1710333934, "2024/3/13 12:45:34",  6,  -60,  1005,  0,  0,  0,  -11,  -26,  -36
703075, 1710333934, "2024/3/13 12:45:34",  4,  -58,  1002,  0,  0,  -1,  -12,  -26,  -37
703275, 1710333934, "2024/3/13 12:45:34",  5,  -57,  1006,  0,  0,  0,  -12,  -25,  -36
703475, 1710333934, "2024/3/13 12:45:34",  1,  -60,  1006,  0,  0,  0,  -12,  -26,  -36
703675, 1710333935, "2024/3/13 12:45:35",  4,  -61,  1000,  0,  0,  -1,  -11,  -25,  -36
703875, 1710333935, "2024/3/13 12:45:35",  8,  -57,  1007,  0,  0,  -1,  -12,  -27,  -37
704075, 1710333935, "2024/3/13 12:45:35",  8,  -59,  1004,  0,  0,  0,  -12,  -26,  -37
704275, 1710333935, "2024/3/13 12:45:35",  0,  -60,  1001,  1,  0,  -1,  -11,  -27,  -36
704475, 1710333935, "2024/3/13 12:45:35",  4,  -58,  1006,  0,  0,  -1,  -13,  -26,  -37
704675, 1710333936, "2024/3/13 12:45:36",  6,  -61,  1001,  0,  0,  0,  -13,  -26,  -36
704875, 1710333936, "2024/3/13 12:45:36",  5,  -57,  1007,  0,  0,  0,  -12,  -26,  -37
705075, 1710333936, "2024/3/13 12:45:36",  3,  -60,  1005,  0,  0,  -1,  -12,  -28,  -36
705275, 1710333936, "2024/3/13 12:45:36",  6,  -61,  1002,  0,  0,  -1,  -13,  -27,  -37
705475, 1710333936, "2024/3/13 12:45:36",  5,  -53,  1006,  0,  0,  -1,  -13,  -26,  -36
705675, 1710333937, "2024/3/13 12:45:37",  7,  -63,  1002,  0,  0,  -1,  -12,  -25,  -39
705875, 1710333937, "2024/3/13 12:45:37",  11,  -62,  1006,  0,  0,  0,  -11,  -25,  -36
706075, 1710333937, "2024/3/13 12:45:37",  3,  -59,  1006,  0,  0,  -1,  -12,  -25,  -36
706275, 1710333937, "2024/3/13 12:45:37",  2,  -57,  1004,  0,  0,  -1,  -11,  -25,  -37
706475, 1710333937, "2024/3/13 12:45:37",  6,  -59,  1002,  0,  0,  -1,  -12,  -25,  -37
706675, 1710333938, "2024/3/13 12:45:38",  0,  -58,  1005,  0,  0,  -1,  -12,  -27,  -36
706875, 1710333938, "2024/3/13 12:45:38",  6,  -56,  1004,  0,  0,  -1,  -10,  -27,  -37
707075, 1710333938, "2024/3/13 12:45:38",  5,  -56,  1000,  0,  0,  0,  -11,  -28,  -37
707275, 1710333938, "2024/3/13 12:45:38",  1,  -63,  1004,  0,  0,  0,  -12,  -25,  -36
707475, 1710333938, "2024/3/13 12:45:38",  8,  -52,  1001,  0,  0,  -1,  -13,  -25,  -36
707675, 1710333939, "2024/3/13 12:45:39",  2,  -58,  1002,  0,  -1,  -1,  -11,  -27,  -36
707875, 1710333939, "2024/3/13 12:45:39",  5,  -58,  1004,  0,  0,  -1,  -12,  -27,  -36
708075, 1710333939, "2024/3/13 12:45:39",  2,  -57,  1003,  0,  0,  -1,  -12,  -25,  -36
708275, 1710333939, "2024/3/13 12:45:39",  2,  -57,  1003,  0,  0,  -1,  -13,  -26,  -36
708475, 1710333939, "2024/3/13 12:45:39",  1,  -60,  1002,  0,  0,  -1,  -10,  -24,  -36
708675, 1710333940, "2024/3/13 12:45:40",  13,  -60,  1003,  0,  0,  0,  -12,  -24,  -36
708875, 1710333940, "2024/3/13 12:45:40",  -3,  -58,  1004,  0,  0,  0,  -12,  -25,  -36
709075, 1710333940, "2024/3/13 12:45:40",  -1,  -51,  1003,  0,  -1,  0,  -11,  -26,  -35
709275, 1710333940, "2024/3/13 12:45:40",  3,  -60,  1005,  0,  0,  -1,  -12,  -25,  -36
709475, 1710333940, "2024/3/13 12:45:40",  4,  -62,  1003,  0,  0,  -1,  -13,  -27,  -36
709675, 1710333941, "2024/3/13 12:45:41",  0,  -58,  1006,  0,  0,  -1,  -11,  -25,  -35
709875, 1710333941, "2024/3/13 12:45:41",  3,  -60,  1002,  0,  0,  -1,  -12,  -27,  -36
710075, 1710333941, "2024/3/13 12:45:41",  8,  -59,  1002,  0,  0,  0,  -12,  -27,  -36
710275, 1710333941, "2024/3/13 12:45:41",  3,  -58,  1003,  0,  -1,  -1,  -12,  -25,  -37
710475, 1710333941, "2024/3/13 12:45:41",  4,  -58,  1006,  0,  0,  0,  -12,  -27,  -37
710675, 1710333942, "2024/3/13 12:45:42",  10,  -60,  1004,  0,  0,  0,  -11,  -25,  -36
710875, 1710333942, "2024/3/13 12:45:42",  1,  -54,  1004,  0,  0,  0,  -12,  -26,  -38
711075, 1710333942, "2024/3/13 12:45:42",  4,  -60,  1006,  0,  0,  0,  -12,  -25,  -36
711275, 1710333942, "2024/3/13 12:45:42",  7,  -56,  1003,  0,  0,  -1,  -11,  -24,  -36
711475, 1710333942, "2024/3/13 12:45:42",  3,  -56,  1006,  0,  0,  -1,  -13,  -25,  -37
711675, 1710333943, "2024/3/13 12:45:43",  6,  -55,  1002,  0,  0,  -1,  -12,  -26,  -35
711875, 1710333943, "2024/3/13 12:45:43",  8,  -56,  1006,  0,  0,  0,  -11,  -27,  -36
712075, 1710333943, "2024/3/13 12:45:43",  0,  -54,  1007,  0,  0,  -1,  -12,  -27,  -36
712275, 1710333943, "2024/3/13 12:45:43",  4,  -59,  1006,  0,  0,  0,  -11,  -26,  -36
712475, 1710333943, "2024/3/13 12:45:43",  5,  -60,  1005,  0,  0,  0,  -11,  -26,  -36
712675, 1710333944, "2024/3/13 12:45:44",  8,  -58,  1002,  0,  0,  -1,  -13,  -25,  -36
712875, 1710333944, "2024/3/13 12:45:44",  4,  -58,  1004,  0,  0,  -1,  -12,  -27,  -35
713075, 1710333944, "2024/3/13 12:45:44",  1,  -62,  1003,  0,  0,  -1,  -12,  -25,  -36
713275, 1710333944, "2024/3/13 12:45:44",  0,  -60,  1003,  0,  0,  -1,  -11,  -26,  -37
713475, 1710333944, "2024/3/13 12:45:44",  0,  -53,  1006,  0,  0,  0,  -12,  -26,  -36
713675, 1710333945, "2024/3/13 12:45:45",  3,  -59,  1006,  0,  0,  -1,  -12,  -25,  -37
713875, 1710333945, "2024/3/13 12:45:45",  1,  -55,  1003,  0,  0,  -1,  -12,  -26,  -37
714075, 1710333945, "2024/3/13 12:45:45",  7,  -51,  1000,  0,  0,  -1,  -12,  -25,  -36
714275, 1710333945, "2024/3/13 12:45:45",  3,  -57,  1004,  0,  0,  -1,  -12,  -26,  -37
714475, 1710333945, "2024/3/13 12:45:45",  7,  -59,  1006,  0,  -1,  -1,  -11,  -25,  -35
714675, 1710333946, "2024/3/13 12:45:46",  4,  -58,  1004,  0,  0,  -1,  -12,  -26,  -36
714875, 1710333946, "2024/3/13 12:45:46",  3,  -61,  1005,  0,  0,  -1,  -11,  -26,  -36
715075, 1710333946, "2024/3/13 12:45:46",  9,  -57,  1008,  0,  0,  0,  -12,  -26,  -36
715275, 1710333946, "2024/3/13 12:45:46",  3,  -57,  1003,  0,  0,  -1,  -12,  -25,  -35
715475, 1710333946, "2024/3/13 12:45:46",  1,  -54,  1010,  0,  0,  -1,  -11,  -24,  -37
715675, 1710333947, "2024/3/13 12:45:47",  8,  -59,  1005,  0,  0,  -1,  -10,  -25,  -36
715875, 1710333947, "2024/3/13 12:45:47",  9,  -58,  1000,  0,  0,  -1,  -11,  -26,  -35
716075, 1710333947, "2024/3/13 12:45:47",  3,  -55,  1004,  0,  0,  0,  -13,  -24,  -36
716275, 1710333947, "2024/3/13 12:45:47",  6,  -61,  1005,  0,  0,  -1,  -12,  -26,  -37
716475, 1710333947, "2024/3/13 12:45:47",  4,  -57,  1007,  0,  -1,  0,  -11,  -26,  -37
716675, 1710333948, "2024/3/13 12:45:48",  9,  -48,  1004,  0,  0,  -1,  -11,  -27,  -36
716875, 1710333948, "2024/3/13 12:45:48",  2,  -55,  1002,  0,  0,  -1,  -12,  -25,  -37
717075, 1710333948, "2024/3/13 12:45:48",  2,  -54,  1001,  0,  0,  -1,  -11,  -25,  -37
717275, 1710333948, "2024/3/13 12:45:48",  6,  -53,  1004,  0,  -1,  -1,  -12,  -27,  -36
717475, 1710333948, "2024/3/13 12:45:48",  4,  -53,  1004,  0,  -1,  0,  -12,  -27,  -37
717675, 1710333949, "2024/3/13 12:45:49",  3,  -57,  1003,  0,  0,  0,  -11,  -25,  -36
717875, 1710333949, "2024/3/13 12:45:49",  3,  -57,  1005,  0,  0,  -1,  -11,  -26,  -36
718075, 1710333949, "2024/3/13 12:45:49",  6,  -59,  1005,  0,  -1,  -1,  -12,  -27,  -37
718275, 1710333949, "2024/3/13 12:45:49",  7,  -59,  1003,  0,  0,  0,  -11,  -26,  -36
718475, 1710333949, "2024/3/13 12:45:49",  7,  -59,  1006,  0,  0,  -1,  -10,  -26,  -36
718675, 1710333950, "2024/3/13 12:45:50",  6,  -61,  1003,  0,  0,  -1,  -12,  -24,  -36
718875, 1710333950, "2024/3/13 12:45:50",  3,  -51,  1007,  0,  0,  0,  -12,  -25,  -37
719075, 1710333950, "2024/3/13 12:45:50",  4,  -58,  1004,  0,  0,  0,  -10,  -27,  -35
719275, 1710333950, "2024/3/13 12:45:50",  5,  -52,  1005,  0,  0,  -1,  -11,  -27,  -36
719475, 1710333950, "2024/3/13 12:45:50",  5,  -58,  1002,  0,  -1,  -1,  -12,  -26,  -36
719675, 1710333951, "2024/3/13 12:45:51",  5,  -58,  1007,  0,  0,  -1,  -11,  -27,  -34
719875, 1710333951, "2024/3/13 12:45:51",  3,  -57,  1007,  0,  0,  0,  -12,  -25,  -35
720075, 1710333951, "2024/3/13 12:45:51",  5,  -56,  1003,  0,  0,  -1,  -11,  -26,  -37
720275, 1710333951, "2024/3/13 12:45:51",  4,  -58,  1006,  0,  0,  -1,  -12,  -25,  -36
720475, 1710333951, "2024/3/13 12:45:51",  7,  -62,  1006,  0,  0,  0,  -11,  -26,  -37
720675, 1710333952, "2024/3/13 12:45:52",  7,  -60,  1004,  0,  0,  0,  -12,  -27,  -36
720875, 1710333952, "2024/3/13 12:45:52",  5,  -58,  1002,  0,  0,  0,  -10,  -26,  -36
721075, 1710333952, "2024/3/13 12:45:52",  1,  -58,  1007,  0,  0,  -1,  -11,  -28,  -35
721275, 1710333952, "2024/3/13 12:45:52",  2,  -55,  1005,  0,  0,  -1,  -10,  -28,  -36
721475, 1710333952, "2024/3/13 12:45:52",  5,  -54,  1003,  0,  0,  -1,  -12,  -26,  -36
721675, 1710333953, "2024/3/13 12:45:53",  7,  -59,  1001,  0,  0,  -1,  -12,  -25,  -36
721875, 1710333953, "2024/3/13 12:45:53",  6,  -62,  1008,  0,  0,  0,  -12,  -25,  -37
722075, 1710333953, "2024/3/13 12:45:53",  5,  -58,  1001,  0,  0,  -1,  -11,  -26,  -35
722275, 1710333953, "2024/3/13 12:45:53",  5,  -52,  1000,  0,  0,  -1,  -11,  -25,  -36
722475, 1710333953, "2024/3/13 12:45:53",  4,  -63,  1006,  0,  0,  0,  -11,  -25,  -37
722675, 1710333954, "2024/3/13 12:45:54",  8,  -57,  1003,  0,  0,  0,  -12,  -27,  -37
722875, 1710333954, "2024/3/13 12:45:54",  4,  -54,  1004,  0,  0,  -1,  -12,  -26,  -36
723075, 1710333954, "2024/3/13 12:45:54",  2,  -55,  1007,  0,  0,  0,  -12,  -28,  -36
723275, 1710333954, "2024/3/13 12:45:54",  7,  -63,  1006,  0,  0,  -1,  -13,  -27,  -36
723475, 1710333954, "2024/3/13 12:45:54",  4,  -55,  1005,  0,  0,  -1,  -12,  -26,  -38
723675, 1710333955, "2024/3/13 12:45:55",  5,  -51,  1002,  0,  0,  0,  -12,  -27,  -37
723875, 1710333955, "2024/3/13 12:45:55",  0,  -57,  1001,  0,  0,  -1,  -12,  -26,  -35
724075, 1710333955, "2024/3/13 12:45:55",  5,  -57,  1005,  0,  -1,  -1,  -11,  -27,  -36
724275, 1710333955, "2024/3/13 12:45:55",  6,  -57,  1003,  0,  0,  -1,  -12,  -25,  -37
724475, 1710333955, "2024/3/13 12:45:55",  11,  -62,  1000,  0,  0,  0,  -11,  -25,  -37
724675, 1710333956, "2024/3/13 12:45:56",  8,  -55,  1006,  0,  0,  -1,  -13,  -26,  -35
724875, 1710333956, "2024/3/13 12:45:56",  3,  -56,  1006,  0,  -1,  -1,  -12,  -25,  -37
725075, 1710333956, "2024/3/13 12:45:56",  3,  -52,  1000,  0,  0,  -1,  -10,  -28,  -36
725275, 1710333956, "2024/3/13 12:45:56",  7,  -55,  1006,  0,  0,  -1,  -11,  -26,  -38
725475, 1710333956, "2024/3/13 12:45:56",  7,  -58,  1002,  1,  -1,  -1,  -13,  -24,  -38
725675, 1710333957, "2024/3/13 12:45:57",  1,  -60,  1006,  0,  -1,  -1,  -12,  -27,  -36
725875, 1710333957, "2024/3/13 12:45:57",  4,  -58,  1004,  0,  0,  -1,  -12,  -27,  -37
726075, 1710333957, "2024/3/13 12:45:57",  6,  -58,  1002,  0,  0,  -1,  -12,  -27,  -36
726275, 1710333957, "2024/3/13 12:45:57",  2,  -53,  1007,  0,  0,  -1,  -12,  -28,  -37
726475, 1710333957, "2024/3/13 12:45:57",  4,  -52,  1003,  0,  0,  -1,  -11,  -27,  -36
726675, 1710333958, "2024/3/13 12:45:58",  9,  -54,  1005,  0,  0,  -1,  -13,  -26,  -36
726875, 1710333958, "2024/3/13 12:45:58",  3,  -56,  1002,  0,  0,  -1,  -11,  -25,  -36
727075, 1710333958, "2024/3/13 12:45:58",  1,  -56,  1003,  0,  0,  -1,  -11,  -25,  -36
727275, 1710333958, "2024/3/13 12:45:58",  1,  -56,  1003,  0,  0,  0,  -12,  -25,  -37
727475, 1710333958, "2024/3/13 12:45:58",  6,  -58,  1002,  0,  0,  -1,  -11,  -27,  -38
727675, 1710333959, "2024/3/13 12:45:59",  4,  -63,  1005,  0,  0,  -1,  -11,  -25,  -36
727875, 1710333959, "2024/3/13 12:45:59",  4,  -53,  1003,  0,  0,  -1,  -13,  -26,  -37
728075, 1710333959, "2024/3/13 12:45:59",  2,  -53,  1006,  0,  0,  0,  -11,  -26,  -36
728275, 1710333959, "2024/3/13 12:45:59",  2,  -56,  1003,  0,  -1,  -1,  -12,  -26,  -37
728475, 1710333959, "2024/3/13 12:45:59",  2,  -54,  1003,  1,  0,  -1,  -11,  -26,  -37
728675, 1710333960, "2024/3/13 12:46:0",  -3,  -52,  1000,  0,  0,  0,  -12,  -27,  -37
728875, 1710333960, "2024/3/13 12:46:0",  7,  -56,  1003,  0,  0,  -1,  -13,  -25,  -37
729075, 1710333960, "2024/3/13 12:46:0",  7,  -60,  1009,  0,  0,  -1,  -12,  -26,  -35
729275, 1710333960, "2024/3/13 12:46:0",  5,  -58,  1003,  0,  0,  -1,  -10,  -26,  -37
729475, 1710333960, "2024/3/13 12:46:0",  10,  -58,  1006,  0,  0,  0,  -11,  -26,  -36
729675, 1710333961, "2024/3/13 12:46:1",  4,  -58,  1007,  0,  0,  0,  -12,  -26,  -37
729875, 1710333961, "2024/3/13 12:46:1",  2,  -60,  1004,  0,  0,  -1,  -12,  -26,  -37
730075, 1710333961, "2024/3/13 12:46:1",  6,  -55,  1002,  0,  0,  0,  -12,  -27,  -36
730275, 1710333961, "2024/3/13 12:46:1",  3,  -58,  1005,  0,  0,  -1,  -11,  -26,  -35
730475, 1710333961, "2024/3/13 12:46:1",  5,  -56,  1006,  0,  -1,  -1,  -13,  -26,  -37
730675, 1710333962, "2024/3/13 12:46:2",  7,  -60,  1006,  0,  0,  -1,  -11,  -27,  -37
730875, 1710333962, "2024/3/13 12:46:2",  6,  -61,  1006,  0,  0,  -1,  -12,  -26,  -37
731075, 1710333962, "2024/3/13 12:46:2",  1,  -60,  1006,  0,  0,  -1,  -11,  -25,  -36
731275, 1710333962, "2024/3/13 12:46:2",  8,  -54,  1004,  0,  0,  -1,  -11,  -26,  -37
731475, 1710333962, "2024/3/13 12:46:2",  6,  -57,  1003,  0,  -1,  0,  -12,  -27,  -36
731675, 1710333963, "2024/3/13 12:46:3",  7,  -55,  1004,  0,  0,  0,  -12,  -25,  -38
731875, 1710333963, "2024/3/13 12:46:3",  8,  -53,  1003,  0,  0,  -1,  -13,  -24,  -36
732075, 1710333963, "2024/3/13 12:46:3",  3,  -56,  1005,  0,  0,  -1,  -11,  -25,  -36
732275, 1710333963, "2024/3/13 12:46:3",  6,  -56,  1004,  0,  0,  0,  -12,  -25,  -37
732475, 1710333963, "2024/3/13 12:46:3",  3,  -52,  1004,  0,  0,  0,  -12,  -26,  -36
732675, 1710333964, "2024/3/13 12:46:4",  5,  -64,  1000,  0,  -1,  -1,  -11,  -25,  -37
732875, 1710333964, "2024/3/13 12:46:4",  6,  -57,  1003,  0,  0,  -1,  -12,  -25,  -37
733075, 1710333964, "2024/3/13 12:46:4",  4,  -63,  1003,  0,  0,  -1,  -11,  -27,  -36
733275, 1710333964, "2024/3/13 12:46:4",  3,  -57,  1004,  0,  0,  0,  -12,  -26,  -36
733475, 1710333964, "2024/3/13 12:46:4",  5,  -55,  1000,  0,  -1,  -1,  -12,  -26,  -36
