millis,stamp,datetime,accX,accY,accZ,gyroX,gyroY,gyroZ,compX,compY,compZ
2776059, 1710336008, "2024/3/13 13:20:8",  5,  -56,  1003,  0,  0,  -1,  -11,  -27,  -36
2776259, 1710336008, "2024/3/13 13:20:8",  1,  -63,  1004,  0,  0,  -1,  -10,  -27,  -36
2776459, 1710336009, "2024/3/13 13:20:9",  6,  -57,  1003,  0,  0,  0,  -11,  -27,  -36
2776659, 1710336009, "2024/3/13 13:20:9",  12,  -59,  1003,  0,  0,  -1,  -12,  -26,  -37
2776859, 1710336009, "2024/3/13 13:20:9",  6,  -61,  1007,  0,  0,  0,  -11,  -26,  -38
2777059, 1710336009, "2024/3/13 13:20:9",  6,  -59,  999,  0,  0,  0,  -11,  -28,  -36
2777259, 1710336009, "2024/3/13 13:20:9",  2,  -59,  1007,  0,  -1,  -1,  -12,  -26,  -35
2777459, 1710336010, "2024/3/13 13:20:10",  7,  -53,  1003,  0,  0,  0,  -11,  -27,  -37
2777659, 1710336010, "2024/3/13 13:20:10",  5,  -56,  1007,  0,  0,  -1,  -11,  -27,  -37
2777859, 1710336010, "2024/3/13 13:20:10",  9,  -58,  1002,  0,  0,  -1,  -10,  -27,  -38
2778059, 1710336010, "2024/3/13 13:20:10",  -1,  -57,  1004,  0,  0,  -1,  -11,  -27,  -35
2778259, 1710336010, "2024/3/13 13:20:10",  5,  -56,  1005,  0,  0,  0,  -11,  -25,  -36
2778459, 1710336011, "2024/3/13 13:20:11",  5,  -65,  1005,  0,  0,  0,  -10,  -28,  -37
2778659, 1710336011, "2024/3/13 13:20:11",  2,  -57,  1005,  0,  0,  0,  -11,  -26,  -37
2778859, 1710336011, "2024/3/13 13:20:11",  1,  -62,  997,  0,  -1,  -1,  -10,  -26,  -37
2779059, 1710336011, "2024/3/13 13:20:11",  6,  -61,  1002,  0,  0,  -1,  -10,  -26,  -37
2779259, 1710336011, "2024/3/13 13:20:11",  1,  -57,  1003,  0,  0,  0,  -10,  -26,  -36
2779459, 1710336012, "2024/3/13 13:20:12",  5,  -61,  1002,  0,  0,  -1,  -11,  -26,  -37
2779659, 1710336012, "2024/3/13 13:20:12",  4,  -83,  996,  0,  -1,  -1,  -11,  -26,  -36
2779859, 1710336012, "2024/3/13 13:20:12",  12,  -55,  1001,  0,  -1,  0,  -11,  -27,  -37
2780059, 1710336012, "2024/3/13 13:20:12",  13,  -57,  1003,  0,  0,  -1,  -11,  -27,  -36
2780259, 1710336012, "2024/3/13 13:20:12",  8,  -60,  1003,  0,  -1,  -1,  -11,  -27,  -35
2780459, 1710336013, "2024/3/13 13:20:13",  9,  -60,  1010,  0,  0,  -1,  -10,  -27,  -38
2780659, 1710336013, "2024/3/13 13:20:13",  4,  -62,  1003,  0,  0,  -1,  -11,  -25,  -37
2780859, 1710336013, "2024/3/13 13:20:13",  5,  -62,  1006,  0,  0,  -1,  -10,  -26,  -37
2781059, 1710336013, "2024/3/13 13:20:13",  12,  -70,  987,  0,  -1,  0,  -12,  -26,  -36
2781259, 1710336013, "2024/3/13 13:20:13",  13,  -57,  1006,  0,  -1,  -1,  -10,  -26,  -35
2781459, 1710336014, "2024/3/13 13:20:14",  4,  -59,  1006,  0,  0,  0,  -9,  -27,  -37
2781659, 1710336014, "2024/3/13 13:20:14",  10,  -59,  1004,  0,  0,  -1,  -11,  -26,  -37
2781859, 1710336014, "2024/3/13 13:20:14",  6,  -62,  1003,  0,  0,  0,  -9,  -28,  -37
2782059, 1710336014, "2024/3/13 13:20:14",  4,  -62,  1007,  0,  0,  -1,  -12,  -25,  -37
2782259, 1710336014, "2024/3/13 13:20:14",  0,  -59,  1006,  0,  0,  -1,  -11,  -26,  -37
2782459, 1710336015, "2024/3/13 13:20:15",  4,  -59,  1003,  0,  0,  -1,  -11,  -26,  -36
2782659, 1710336015, "2024/3/13 13:20:15",  6,  -61,  1000,  0,  -1,  0,  -12,  -25,  -37
2782859, 1710336015, "2024/3/13 13:20:15",  2,  -53,  1002,  0,  0,  0,  -12,  -26,  -36
2783059, 1710336015, "2024/3/13 13:20:15",  2,  -57,  1002,  0,  0,  -1,  -10,  -27,  -36
2783259, 1710336015, "2024/3/13 13:20:15",  5,  -62,  1005,  0,  0,  0,  -10,  -25,  -38
2783459, 1710336016, "2024/3/13 13:20:16",  6,  -69,  1002,  0,  0,  0,  -10,  -27,  -36
2783659, 1710336016, "2024/3/13 13:20:16",  6,  -64,  1006,  0,  0,  -1,  -8,  -26,  -36
2783859, 1710336016, "2024/3/13 13:20:16",  7,  -59,  1000,  0,  0,  -1,  -10,  -25,  -37
2784059, 1710336016, "2024/3/13 13:20:16",  6,  -60,  1003,  0,  0,  -1,  -10,  -27,  -36
2784259, 1710336016, "2024/3/13 13:20:16",  4,  -56,  1002,  0,  0,  -1,  -11,  -26,  -36
2784459, 1710336017, "2024/3/13 13:20:17",  0,  -62,  1004,  0,  0,  -1,  -10,  -26,  -36
2784659, 1710336017, "2024/3/13 13:20:17",  9,  -57,  1001,  0,  0,  0,  -10,  -26,  -37
2784859, 1710336017, "2024/3/13 13:20:17",  5,  -54,  1003,  0,  0,  0,  -9,  -27,  -37
2785059, 1710336017, "2024/3/13 13:20:17",  9,  -60,  1003,  0,  0,  -1,  -11,  -27,  -36
2785259, 1710336017, "2024/3/13 13:20:17",  7,  -57,  1004,  0,  0,  -1,  -11,  -27,  -37
2785459, 1710336018, "2024/3/13 13:20:18",  6,  -55,  1001,  0,  -1,  -1,  -10,  -27,  -35
2785659, 1710336018, "2024/3/13 13:20:18",  5,  -62,  1005,  0,  0,  0,  -11,  -26,  -36
2785859, 1710336018, "2024/3/13 13:20:18",  5,  -51,  1002,  0,  0,  -1,  -12,  -25,  -36
2786059, 1710336018, "2024/3/13 13:20:18",  8,  -63,  1003,  0,  0,  0,  -11,  -28,  -36
2786259, 1710336018, "2024/3/13 13:20:18",  8,  -58,  1002,  0,  0,  -1,  -9,  -27,  -37
2786459, 1710336019, "2024/3/13 13:20:19",  6,  -56,  1004,  0,  0,  -1,  -12,  -27,  -37
2786659, 1710336019, "2024/3/13 13:20:19",  5,  -53,  1002,  0,  0,  -1,  -12,  -25,  -37
2786859, 1710336019, "2024/3/13 13:20:19",  7,  -63,  1000,  0,  0,  -1,  -9,  -26,  -36
2787059, 1710336019, "2024/3/13 13:20:19",  5,  -62,  1003,  0,  0,  0,  -12,  -26,  -37
2787259, 1710336019, "2024/3/13 13:20:19",  3,  -55,  1003,  0,  0,  -1,  -10,  -27,  -36
2787459, 1710336020, "2024/3/13 13:20:20",  -2,  -60,  1004,  0,  0,  -1,  -10,  -26,  -36
2787659, 1710336020, "2024/3/13 13:20:20",  1,  -57,  1005,  0,  -1,  0,  -11,  -27,  -37
2787859, 1710336020, "2024/3/13 13:20:20",  9,  -60,  1004,  0,  0,  -1,  -12,  -28,  -36
2788059, 1710336020, "2024/3/13 13:20:20",  6,  -54,  998,  0,  -1,  -1,  -10,  -27,  -36
2788259, 1710336020, "2024/3/13 13:20:20",  8,  -53,  1001,  0,  0,  -1,  -9,  -27,  -36
2788459, 1710336021, "2024/3/13 13:20:21",  11,  -59,  1009,  0,  0,  -1,  -10,  -27,  -36
2788659, 1710336021, "2024/3/13 13:20:21",  3,  -62,  1005,  0,  0,  -1,  -11,  -24,  -37
2788859, 1710336021, "2024/3/13 13:20:21",  6,  -56,  1002,  0,  0,  -1,  -10,  -27,  -36
2789059, 1710336021, "2024/3/13 13:20:21",  11,  -54,  1002,  0,  -1,  -1,  -11,  -27,  -37
2789259, 1710336021, "2024/3/13 13:20:21",  5,  -59,  1003,  0,  0,  -1,  -12,  -26,  -37
2789459, 1710336022, "2024/3/13 13:20:22",  3,  -59,  1006,  0,  0,  0,  -12,  -26,  -35
2789659, 1710336022, "2024/3/13 13:20:22",  3,  -64,  1002,  0,  0,  -1,  -12,  -27,  -38
2789859, 1710336022, "2024/3/13 13:20:22",  3,  -64,  1005,  0,  0,  -1,  -11,  -27,  -36
2790059, 1710336022, "2024/3/13 13:20:22",  7,  -57,  1004,  0,  0,  0,  -10,  -26,  -37
2790259, 1710336022, "2024/3/13 13:20:22",  7,  -59,  1003,  0,  0,  -1,  -11,  -27,  -36
2790459, 1710336023, "2024/3/13 13:20:23",  -5,  -57,  1006,  0,  0,  -1,  -12,  -26,  -36
2790659, 1710336023, "2024/3/13 13:20:23",  0,  -50,  1000,  0,  -1,  -1,  -10,  -26,  -36
2790859, 1710336023, "2024/3/13 13:20:23",  0,  -60,  1010,  0,  0,  0,  -10,  -27,  -37
2791059, 1710336023, "2024/3/13 13:20:23",  3,  -57,  1001,  0,  -1,  -1,  -11,  -28,  -37
2791259, 1710336023, "2024/3/13 13:20:23",  8,  -53,  1000,  0,  0,  -1,  -12,  -27,  -37
2791459, 1710336024, "2024/3/13 13:20:24",  5,  -61,  1000,  0,  0,  -1,  -11,  -27,  -37
2791659, 1710336024, "2024/3/13 13:20:24",  4,  -64,  1001,  0,  -1,  0,  -11,  -26,  -37
2791859, 1710336024, "2024/3/13 13:20:24",  8,  -60,  1003,  0,  0,  -1,  -11,  -27,  -37
2792059, 1710336024, "2024/3/13 13:20:24",  5,  -61,  1003,  0,  0,  0,  -11,  -26,  -37
2792259, 1710336024, "2024/3/13 13:20:24",  0,  -61,  998,  0,  0,  -1,  -10,  -27,  -37
2792459, 1710336025, "2024/3/13 13:20:25",  -2,  -60,  1000,  0,  0,  -1,  -11,  -26,  -36
2792659, 1710336025, "2024/3/13 13:20:25",  0,  -64,  1009,  0,  0,  0,  -11,  -25,  -35
2792859, 1710336025, "2024/3/13 13:20:25",  -5,  -62,  1005,  0,  0,  -1,  -10,  -26,  -36
2793059, 1710336025, "2024/3/13 13:20:25",  -2,  -59,  994,  1,  0,  -1,  -11,  -28,  -37
2793259, 1710336025, "2024/3/13 13:20:25",  1,  -64,  1002,  0,  0,  0,  -10,  -25,  -36
2793459, 1710336026, "2024/3/13 13:20:26",  2,  -55,  1002,  0,  0,  0,  -11,  -27,  -36
2793659, 1710336026, "2024/3/13 13:20:26",  5,  -60,  1001,  0,  0,  0,  -10,  -27,  -37
2793859, 1710336026, "2024/3/13 13:20:26",  1,  -56,  1002,  0,  0,  -1,  -11,  -26,  -36
2794059, 1710336026, "2024/3/13 13:20:26",  2,  -53,  1003,  0,  0,  -1,  -9,  -25,  -37
2794259, 1710336026, "2024/3/13 13:20:26",  4,  -59,  1003,  0,  0,  -1,  -10,  -26,  -36
2794459, 1710336027, "2024/3/13 13:20:27",  -2,  -54,  1002,  0,  0,  0,  -10,  -26,  -38
2794659, 1710336027, "2024/3/13 13:20:27",  5,  -63,  1001,  0,  -1,  -1,  -11,  -28,  -35
2794859, 1710336027, "2024/3/13 13:20:27",  5,  -63,  1003,  0,  0,  0,  -12,  -26,  -38
2795059, 1710336027, "2024/3/13 13:20:27",  7,  -58,  1003,  0,  -1,  -1,  -11,  -27,  -36
2795259, 1710336027, "2024/3/13 13:20:27",  4,  -52,  1003,  0,  0,  -1,  -10,  -26,  -36
2795459, 1710336028, "2024/3/13 13:20:28",  6,  -60,  1000,  0,  0,  -1,  -10,  -28,  -38
2795659, 1710336028, "2024/3/13 13:20:28",  2,  -64,  1004,  0,  0,  0,  -10,  -27,  -36
2795859, 1710336028, "2024/3/13 13:20:28",  1,  -59,  1002,  0,  -1,  0,  -11,  -25,  -37
2796059, 1710336028, "2024/3/13 13:20:28",  3,  -62,  1002,  0,  0,  0,  -10,  -27,  -36
2796259, 1710336028, "2024/3/13 13:20:28",  11,  -62,  1004,  0,  0,  0,  -12,  -27,  -37
2796459, 1710336029, "2024/3/13 13:20:29",  9,  -60,  1005,  0,  0,  -1,  -10,  -26,  -37
2796659, 1710336029, "2024/3/13 13:20:29",  9,  -49,  1002,  0,  0,  -1,  -11,  -26,  -37
2796859, 1710336029, "2024/3/13 13:20:29",  0,  -59,  979,  0,  0,  0,  -12,  -27,  -37
2797059, 1710336029, "2024/3/13 13:20:29",  16,  -57,  1006,  0,  0,  -1,  -11,  -27,  -36
2797259, 1710336029, "2024/3/13 13:20:29",  16,  -58,  1002,  0,  0,  -1,  -10,  -26,  -36
2797459, 1710336030, "2024/3/13 13:20:30",  14,  -59,  1004,  0,  0,  -1,  -11,  -27,  -36
2797659, 1710336030, "2024/3/13 13:20:30",  5,  -54,  1000,  0,  -1,  0,  -11,  -27,  -37
2797859, 1710336030, "2024/3/13 13:20:30",  18,  -50,  1018,  0,  0,  -1,  -11,  -26,  -36
2798059, 1710336030, "2024/3/13 13:20:30",  17,  -61,  998,  0,  0,  -1,  -10,  -28,  -36
2798259, 1710336030, "2024/3/13 13:20:30",  15,  -64,  1005,  0,  0,  0,  -10,  -25,  -37
2798459, 1710336031, "2024/3/13 13:20:31",  2,  -61,  1001,  0,  0,  -1,  -10,  -26,  -36
2798659, 1710336031, "2024/3/13 13:20:31",  4,  -62,  1004,  0,  0,  -1,  -11,  -26,  -38
2798859, 1710336031, "2024/3/13 13:20:31",  9,  -56,  1001,  0,  0,  -1,  -10,  -27,  -37
2799059, 1710336031, "2024/3/13 13:20:31",  3,  -55,  1001,  0,  0,  -1,  -10,  -26,  -38
2799259, 1710336031, "2024/3/13 13:20:31",  3,  -57,  1002,  0,  0,  -1,  -10,  -26,  -37
2799459, 1710336032, "2024/3/13 13:20:32",  1,  -63,  1006,  0,  0,  -1,  -11,  -25,  -37
2799659, 1710336032, "2024/3/13 13:20:32",  3,  -61,  1004,  0,  0,  0,  -9,  -26,  -36
2799859, 1710336032, "2024/3/13 13:20:32",  0,  -58,  1002,  0,  0,  0,  -10,  -25,  -36
2800059, 1710336032, "2024/3/13 13:20:32",  4,  -57,  1004,  0,  0,  0,  -9,  -26,  -37
2800259, 1710336032, "2024/3/13 13:20:32",  8,  -50,  1004,  0,  0,  -1,  -10,  -27,  -38
2800459, 1710336033, "2024/3/13 13:20:33",  3,  -60,  1004,  0,  0,  -1,  -10,  -25,  -36
2800659, 1710336033, "2024/3/13 13:20:33",  7,  -58,  1002,  0,  0,  0,  -10,  -26,  -37
2800859, 1710336033, "2024/3/13 13:20:33",  6,  -64,  1002,  0,  0,  0,  -10,  -26,  -36
2801059, 1710336033, "2024/3/13 13:20:33",  11,  -58,  1000,  1,  0,  -1,  -11,  -27,  -36
2801259, 1710336033, "2024/3/13 13:20:33",  5,  -57,  1008,  0,  -1,  -1,  -10,  -27,  -36
2801459, 1710336034, "2024/3/13 13:20:34",  7,  -64,  1006,  0,  -1,  -1,  -9,  -28,  -37
2801659, 1710336034, "2024/3/13 13:20:34",  7,  -58,  1004,  0,  0,  0,  -9,  -27,  -35
2801859, 1710336034, "2024/3/13 13:20:34",  7,  -61,  1000,  0,  0,  -1,  -11,  -25,  -35
2802059, 1710336034, "2024/3/13 13:20:34",  4,  -56,  1004,  0,  -1,  -1,  -10,  -28,  -35
2802259, 1710336034, "2024/3/13 13:20:34",  7,  -54,  1005,  0,  0,  0,  -12,  -27,  -36
2802459, 1710336035, "2024/3/13 13:20:35",  6,  -57,  1003,  0,  0,  -1,  -10,  -26,  -36
2802659, 1710336035, "2024/3/13 13:20:35",  3,  -62,  1005,  0,  0,  0,  -11,  -27,  -36
2802859, 1710336035, "2024/3/13 13:20:35",  9,  -64,  1002,  0,  0,  -1,  -12,  -27,  -36
2803059, 1710336035, "2024/3/13 13:20:35",  5,  -65,  1005,  0,  0,  0,  -11,  -27,  -37
2803259, 1710336035, "2024/3/13 13:20:35",  -1,  -54,  1006,  0,  0,  0,  -10,  -26,  -37
2803459, 1710336036, "2024/3/13 13:20:36",  8,  -44,  1008,  0,  0,  -1,  -10,  -27,  -37
2803659, 1710336036, "2024/3/13 13:20:36",  4,  -65,  1007,  0,  0,  -1,  -9,  -25,  -36
2803859, 1710336036, "2024/3/13 13:20:36",  4,  -60,  1004,  0,  0,  -1,  -10,  -27,  -36
2804059, 1710336036, "2024/3/13 13:20:36",  7,  -66,  1008,  0,  0,  -1,  -12,  -26,  -37
2804259, 1710336036, "2024/3/13 13:20:36",  6,  -62,  1002,  0,  0,  0,  -11,  -27,  -37
2804459, 1710336037, "2024/3/13 13:20:37",  11,  -61,  1005,  0,  0,  -1,  -11,  -25,  -36
2804659, 1710336037, "2024/3/13 13:20:37",  14,  -56,  1005,  0,  0,  -1,  -9,  -27,  -36
2804859, 1710336037, "2024/3/13 13:20:37",  8,  -58,  1004,  0,  0,  0,  -11,  -26,  -37
2805059, 1710336037, "2024/3/13 13:20:37",  7,  -60,  1001,  0,  -1,  -1,  -10,  -26,  -37
2805259, 1710336037, "2024/3/13 13:20:37",  2,  -54,  1002,  0,  0,  -1,  -12,  -28,  -37
2805459, 1710336038, "2024/3/13 13:20:38",  9,  -65,  1002,  0,  0,  -1,  -11,  -26,  -36
2805659, 1710336038, "2024/3/13 13:20:38",  2,  -60,  1005,  0,  0,  -1,  -11,  -26,  -36
2805859, 1710336038, "2024/3/13 13:20:38",  10,  -62,  1016,  0,  0,  -1,  -11,  -27,  -36
2806059, 1710336038, "2024/3/13 13:20:38",  1,  -62,  1008,  0,  0,  -1,  -11,  -27,  -36
2806259, 1710336038, "2024/3/13 13:20:38",  3,  -65,  1005,  0,  0,  0,  -11,  -27,  -37
2806459, 1710336039, "2024/3/13 13:20:39",  6,  -60,  1005,  0,  -1,  -1,  -11,  -27,  -36
2806659, 1710336039, "2024/3/13 13:20:39",  10,  -57,  992,  0,  0,  0,  -11,  -27,  -37
2806859, 1710336039, "2024/3/13 13:20:39",  13,  -52,  1016,  1,  0,  0,  -12,  -26,  -36
2807059, 1710336039, "2024/3/13 13:20:39",  5,  -61,  997,  0,  0,  0,  -10,  -26,  -36
2807259, 1710336039, "2024/3/13 13:20:39",  15,  -60,  1004,  0,  0,  -1,  -11,  -26,  -37
2807459, 1710336040, "2024/3/13 13:20:40",  8,  -61,  1007,  0,  -1,  -1,  -10,  -27,  -36
2807659, 1710336040, "2024/3/13 13:20:40",  3,  -60,  1004,  0,  0,  -1,  -11,  -27,  -35
2807859, 1710336040, "2024/3/13 13:20:40",  6,  -64,  1002,  0,  0,  0,  -10,  -27,  -37
2808059, 1710336040, "2024/3/13 13:20:40",  7,  -62,  1001,  0,  0,  0,  -11,  -27,  -36
2808259, 1710336040, "2024/3/13 13:20:40",  9,  -63,  1000,  0,  0,  0,  -11,  -25,  -36
2808459, 1710336041, "2024/3/13 13:20:41",  0,  -56,  1001,  0,  0,  0,  -11,  -26,  -38
2808659, 1710336041, "2024/3/13 13:20:41",  9,  -62,  1008,  0,  0,  0,  -12,  -28,  -37
2808859, 1710336041, "2024/3/13 13:20:41",  4,  -54,  1003,  0,  0,  -1,  -10,  -27,  -37
2809059, 1710336041, "2024/3/13 13:20:41",  7,  -58,  1004,  0,  0,  -1,  -12,  -26,  -36
2809259, 1710336041, "2024/3/13 13:20:41",  -3,  -54,  1000,  0,  0,  0,  -11,  -27,  -36
2809459, 1710336042, "2024/3/13 13:20:42",  0,  -53,  1002,  0,  0,  -1,  -10,  -26,  -37
2809659, 1710336042, "2024/3/13 13:20:42",  3,  -60,  1004,  0,  0,  0,  -11,  -27,  -37
2809859, 1710336042, "2024/3/13 13:20:42",  10,  -59,  1005,  0,  0,  -1,  -10,  -27,  -36
2810059, 1710336042, "2024/3/13 13:20:42",  8,  -62,  1005,  0,  0,  0,  -11,  -26,  -36
2810259, 1710336042, "2024/3/13 13:20:42",  8,  -61,  1004,  0,  0,  -1,  -12,  -27,  -37
2810459, 1710336043, "2024/3/13 13:20:43",  0,  -63,  1002,  0,  0,  0,  -11,  -25,  -36
2810659, 1710336043, "2024/3/13 13:20:43",  2,  -58,  1005,  0,  -1,  -1,  -11,  -26,  -37
2810859, 1710336043, "2024/3/13 13:20:43",  4,  -53,  1001,  0,  -1,  0,  -10,  -27,  -36
2811059, 1710336043, "2024/3/13 13:20:43",  7,  -54,  1000,  1,  0,  -1,  -10,  -27,  -36
2811259, 1710336043, "2024/3/13 13:20:43",  2,  -64,  1002,  0,  0,  -1,  -11,  -25,  -36
2811459, 1710336044, "2024/3/13 13:20:44",  -2,  -62,  1000,  0,  0,  -1,  -10,  -27,  -36
2811659, 1710336044, "2024/3/13 13:20:44",  2,  -56,  1004,  0,  0,  -1,  -11,  -27,  -36
2811859, 1710336044, "2024/3/13 13:20:44",  1,  -56,  1001,  0,  -1,  -1,  -12,  -27,  -37
2812059, 1710336044, "2024/3/13 13:20:44",  0,  -55,  1001,  0,  0,  -1,  -10,  -27,  -36
2812259, 1710336044, "2024/3/13 13:20:44",  5,  -61,  1001,  0,  0,  -1,  -9,  -26,  -36
2812459, 1710336045, "2024/3/13 13:20:45",  1,  -62,  1004,  0,  0,  -1,  -10,  -27,  -37
2812659, 1710336045, "2024/3/13 13:20:45",  2,  -57,  1002,  0,  -1,  -1,  -11,  -26,  -36
2812859, 1710336045, "2024/3/13 13:20:45",  0,  -62,  1006,  0,  0,  -1,  -11,  -27,  -35
2813059, 1710336045, "2024/3/13 13:20:45",  3,  -62,  1005,  0,  0,  -1,  -11,  -27,  -36
2813259, 1710336045, "2024/3/13 13:20:45",  3,  -51,  1001,  0,  0,  0,  -11,  -28,  -37
2813459, 1710336046, "2024/3/13 13:20:46",  3,  -60,  1003,  0,  0,  -1,  -10,  -27,  -36
2813659, 1710336046, "2024/3/13 13:20:46",  9,  -57,  1009,  0,  -1,  -1,  -10,  -25,  -36
2813859, 1710336046, "2024/3/13 13:20:46",  8,  -60,  1004,  0,  0,  0,  -11,  -27,  -36
2814059, 1710336046, "2024/3/13 13:20:46",  7,  -58,  1005,  0,  0,  0,  -11,  -25,  -36
2814259, 1710336046, "2024/3/13 13:20:46",  2,  -56,  1002,  0,  0,  -1,  -11,  -26,  -37
2814459, 1710336047, "2024/3/13 13:20:47",  8,  -58,  1003,  0,  0,  0,  -11,  -25,  -36
2814659, 1710336047, "2024/3/13 13:20:47",  -1,  -65,  983,  0,  0,  -1,  -11,  -26,  -37
2814859, 1710336047, "2024/3/13 13:20:47",  6,  -57,  1003,  0,  0,  -1,  -10,  -27,  -36
2815059, 1710336047, "2024/3/13 13:20:47",  5,  -65,  1004,  0,  0,  -1,  -11,  -27,  -37
2815259, 1710336047, "2024/3/13 13:20:47",  7,  -62,  999,  0,  0,  0,  -10,  -26,  -37
2815459, 1710336048, "2024/3/13 13:20:48",  4,  -62,  1001,  0,  0,  -1,  -11,  -27,  -37
2815659, 1710336048, "2024/3/13 13:20:48",  6,  -56,  999,  0,  0,  -1,  -11,  -27,  -37
2815859, 1710336048, "2024/3/13 13:20:48",  -1,  -61,  997,  0,  -1,  0,  -11,  -27,  -37
2816059, 1710336048, "2024/3/13 13:20:48",  13,  -61,  1011,  1,  0,  0,  -9,  -27,  -36
2816259, 1710336048, "2024/3/13 13:20:48",  6,  -56,  1004,  0,  0,  -1,  -11,  -25,  -35
2816459, 1710336049, "2024/3/13 13:20:49",  5,  -56,  1003,  0,  0,  -1,  -10,  -26,  -36
2816659, 1710336049, "2024/3/13 13:20:49",  4,  -63,  1003,  0,  -1,  0,  -10,  -26,  -36
2816859, 1710336049, "2024/3/13 13:20:49",  3,  -63,  1005,  0,  0,  0,  -10,  -25,  -36
2817059, 1710336049, "2024/3/13 13:20:49",  11,  -56,  1003,  0,  0,  0,  -11,  -25,  -38
2817259, 1710336049, "2024/3/13 13:20:49",  5,  -56,  1001,  0,  0,  0,  -11,  -26,  -35
2817459, 1710336050, "2024/3/13 13:20:50",  10,  -62,  1004,  0,  0,  -1,  -10,  -28,  -37
2817659, 1710336050, "2024/3/13 13:20:50",  5,  -57,  1003,  0,  -1,  -1,  -11,  -25,  -37
2817859, 1710336050, "2024/3/13 13:20:50",  9,  -55,  1002,  0,  0,  0,  -11,  -25,  -36
2818059, 1710336050, "2024/3/13 13:20:50",  0,  -64,  1004,  0,  0,  0,  -11,  -26,  -35
2818259, 1710336050, "2024/3/13 13:20:50",  3,  -62,  1000,  0,  0,  -1,  -9,  -26,  -37
2818459, 1710336051, "2024/3/13 13:20:51",  4,  -57,  1001,  0,  0,  -1,  -10,  -27,  -36
2818659, 1710336051, "2024/3/13 13:20:51",  5,  -62,  1001,  0,  0,  -1,  -11,  -27,  -37
2818859, 1710336051, "2024/3/13 13:20:51",  6,  -63,  1004,  0,  0,  -1,  -10,  -27,  -37
2819059, 1710336051, "2024/3/13 13:20:51",  7,  -55,  1003,  0,  -1,  0,  -11,  -27,  -36
2819259, 1710336051, "2024/3/13 13:20:51",  7,  -57,  1001,  0,  0,  0,  -10,  -26,  -36
2819459, 1710336052, "2024/3/13 13:20:52",  12,  -61,  1003,  0,  0,  -1,  -11,  -27,  -37
2819659, 1710336052, "2024/3/13 13:20:52",  6,  -63,  1006,  0,  0,  0,  -10,  -27,  -37
2819859, 1710336052, "2024/3/13 13:20:52",  9,  -62,  1006,  0,  0,  0,  -10,  -28,  -35
2820059, 1710336052, "2024/3/13 13:20:52",  8,  -62,  1004,  0,  0,  -1,  -11,  -27,  -37
2820259, 1710336052, "2024/3/13 13:20:52",  8,  -60,  1003,  0,  -1,  -1,  -10,  -28,  -37
2820459, 1710336053, "2024/3/13 13:20:53",  5,  -52,  1002,  0,  0,  -1,  -11,  -25,  -37
2820659, 1710336053, "2024/3/13 13:20:53",  5,  -56,  1002,  0,  0,  -1,  -10,  -25,  -38
2820859, 1710336053, "2024/3/13 13:20:53",  6,  -51,  1009,  0,  0,  -1,  -11,  -27,  -36
2821059, 1710336053, "2024/3/13 13:20:53",  5,  -61,  999,  0,  0,  -1,  -11,  -26,  -37
2821259, 1710336053, "2024/3/13 13:20:53",  9,  -59,  1004,  0,  0,  -1,  -10,  -26,  -36
2821459, 1710336054, "2024/3/13 13:20:54",  4,  -56,  1004,  0,  0,  -1,  -8,  -25,  -36
2821659, 1710336054, "2024/3/13 13:20:54",  5,  -65,  1001,  0,  0,  -1,  -11,  -27,  -36
2821859, 1710336054, "2024/3/13 13:20:54",  4,  -67,  1006,  0,  0,  -1,  -11,  -26,  -37
2822059, 1710336054, "2024/3/13 13:20:54",  10,  -49,  1004,  0,  -1,  -1,  -10,  -26,  -37
2822259, 1710336054, "2024/3/13 13:20:54",  7,  -63,  1004,  0,  0,  0,  -11,  -27,  -34
2822459, 1710336055, "2024/3/13 13:20:55",  9,  -70,  1002,  0,  0,  0,  -11,  -26,  -35
2822659, 1710336055, "2024/3/13 13:20:55",  10,  -63,  1004,  0,  0,  -1,  -11,  -27,  -36
2822859, 1710336055, "2024/3/13 13:20:55",  3,  -66,  1004,  0,  0,  -1,  -11,  -26,  -38
2823059, 1710336055, "2024/3/13 13:20:55",  5,  -56,  1003,  0,  0,  -1,  -10,  -26,  -37
2823259, 1710336055, "2024/3/13 13:20:55",  2,  -50,  1002,  0,  0,  0,  -9,  -25,  -37
2823459, 1710336056, "2024/3/13 13:20:56",  6,  -59,  998,  0,  0,  -1,  -12,  -27,  -36
2823659, 1710336056, "2024/3/13 13:20:56",  5,  -64,  1005,  0,  0,  -1,  -11,  -26,  -36
2823859, 1710336056, "2024/3/13 13:20:56",  8,  -59,  1003,  0,  0,  -1,  -10,  -28,  -38
2824059, 1710336056, "2024/3/13 13:20:56",  5,  -54,  1004,  0,  0,  -1,  -11,  -27,  -36
2824259, 1710336056, "2024/3/13 13:20:56",  7,  -62,  1004,  0,  0,  -1,  -11,  -24,  -36
2824459, 1710336057, "2024/3/13 13:20:57",  6,  -56,  1004,  0,  0,  -1,  -10,  -26,  -36
2824659, 1710336057, "2024/3/13 13:20:57",  8,  -64,  1003,  0,  0,  -1,  -11,  -26,  -36
2824859, 1710336057, "2024/3/13 13:20:57",  4,  -64,  1004,  0,  0,  0,  -11,  -26,  -36
2825059, 1710336057, "2024/3/13 13:20:57",  2,  -49,  1002,  0,  0,  -1,  -11,  -25,  -37
2825259, 1710336057, "2024/3/13 13:20:57",  8,  -58,  999,  0,  0,  0,  -11,  -27,  -36
2825459, 1710336058, "2024/3/13 13:20:58",  5,  -60,  1006,  0,  0,  -1,  -10,  -28,  -38
2825659, 1710336058, "2024/3/13 13:20:58",  -1,  -61,  1001,  0,  0,  -1,  -10,  -27,  -36
2825859, 1710336058, "2024/3/13 13:20:58",  3,  -54,  1006,  0,  0,  -1,  -12,  -27,  -37
2826059, 1710336058, "2024/3/13 13:20:58",  6,  -58,  1005,  0,  0,  -1,  -9,  -27,  -36
2826259, 1710336058, "2024/3/13 13:20:58",  5,  -58,  1003,  0,  0,  -1,  -9,  -26,  -35
2826459, 1710336059, "2024/3/13 13:20:59",  8,  -59,  1005,  0,  0,  -1,  -11,  -26,  -36
2826659, 1710336059, "2024/3/13 13:20:59",  4,  -56,  1000,  0,  -1,  -1,  -11,  -26,  -37
2826859, 1710336059, "2024/3/13 13:20:59",  9,  -59,  1002,  0,  0,  -1,  -12,  -28,  -35
2827059, 1710336059, "2024/3/13 13:20:59",  7,  -64,  1004,  0,  0,  -1,  -11,  -26,  -36
2827259, 1710336059, "2024/3/13 13:20:59",  8,  -58,  1006,  0,  0,  -1,  -12,  -30,  -36
2827459, 1710336060, "2024/3/13 13:21:0",  0,  -55,  1005,  0,  0,  -1,  -10,  -26,  -36
2827659, 1710336060, "2024/3/13 13:21:0",  4,  -56,  1004,  0,  0,  0,  -10,  -25,  -36
2827859, 1710336060, "2024/3/13 13:21:0",  4,  -61,  1006,  0,  0,  -1,  -11,  -27,  -37
2828059, 1710336060, "2024/3/13 13:21:0",  5,  -54,  1006,  0,  -1,  0,  -12,  -26,  -37
2828259, 1710336060, "2024/3/13 13:21:0",  9,  -64,  1006,  0,  0,  0,  -11,  -27,  -37
2828459, 1710336061, "2024/3/13 13:21:1",  2,  -64,  1007,  0,  -1,  -1,  -11,  -28,  -36
2828659, 1710336061, "2024/3/13 13:21:1",  8,  -54,  998,  0,  0,  -1,  -11,  -25,  -36
2828859, 1710336061, "2024/3/13 13:21:1",  3,  -62,  1004,  0,  -1,  -1,  -11,  -25,  -37
2829059, 1710336061, "2024/3/13 13:21:1",  7,  -56,  1006,  0,  0,  0,  -11,  -27,  -37
2829259, 1710336061, "2024/3/13 13:21:1",  8,  -56,  1005,  0,  0,  0,  -10,  -26,  -37
2829459, 1710336062, "2024/3/13 13:21:2",  8,  -63,  1001,  0,  0,  -1,  -10,  -25,  -37
2829659, 1710336062, "2024/3/13 13:21:2",  8,  -57,  998,  0,  0,  -1,  -13,  -27,  -36
2829859, 1710336062, "2024/3/13 13:21:2",  5,  -61,  1000,  1,  -1,  0,  -9,  -26,  -36
2830059, 1710336062, "2024/3/13 13:21:2",  0,  -63,  998,  0,  0,  0,  -11,  -26,  -36
2830259, 1710336062, "2024/3/13 13:21:2",  2,  -57,  1002,  0,  0,  0,  -10,  -27,  -37
2830459, 1710336063, "2024/3/13 13:21:3",  7,  -54,  999,  0,  0,  0,  -11,  -27,  -36
2830659, 1710336063, "2024/3/13 13:21:3",  4,  -53,  999,  0,  -1,  -1,  -9,  -25,  -35
2830859, 1710336063, "2024/3/13 13:21:3",  5,  -56,  1001,  0,  0,  0,  -9,  -27,  -35
2831059, 1710336063, "2024/3/13 13:21:3",  8,  -58,  1008,  0,  0,  -1,  -10,  -25,  -37
2831259, 1710336063, "2024/3/13 13:21:3",  9,  -55,  1001,  0,  -1,  -1,  -9,  -25,  -36
2831459, 1710336064, "2024/3/13 13:21:4",  8,  -65,  1004,  0,  0,  -1,  -11,  -27,  -36
2831659, 1710336064, "2024/3/13 13:21:4",  6,  -67,  1005,  0,  -1,  0,  -11,  -26,  -35
2831859, 1710336064, "2024/3/13 13:21:4",  7,  -57,  1000,  0,  0,  -1,  -10,  -25,  -36
2832059, 1710336064, "2024/3/13 13:21:4",  8,  -60,  1001,  0,  0,  -1,  -10,  -26,  -36
2832259, 1710336064, "2024/3/13 13:21:4",  8,  -58,  1003,  0,  -1,  0,  -9,  -26,  -38
2832459, 1710336065, "2024/3/13 13:21:5",  3,  -59,  1001,  0,  0,  0,  -10,  -27,  -36
2832659, 1710336065, "2024/3/13 13:21:5",  8,  -56,  1004,  0,  0,  -1,  -10,  -26,  -35
2832859, 1710336065, "2024/3/13 13:21:5",  3,  -63,  1004,  0,  0,  -1,  -11,  -27,  -36
2833059, 1710336065, "2024/3/13 13:21:5",  5,  -63,  1005,  0,  0,  -1,  -10,  -27,  -36
2833259, 1710336065, "2024/3/13 13:21:5",  13,  -56,  1005,  0,  0,  -1,  -11,  -26,  -37
2833459, 1710336066, "2024/3/13 13:21:6",  6,  -62,  1003,  0,  0,  0,  -11,  -27,  -36
2833659, 1710336066, "2024/3/13 13:21:6",  6,  -64,  1001,  0,  0,  -1,  -11,  -27,  -36
2833859, 1710336066, "2024/3/13 13:21:6",  9,  -52,  1005,  0,  0,  -1,  -11,  -27,  -35
2834059, 1710336066, "2024/3/13 13:21:6",  1,  -50,  1004,  0,  0,  0,  -10,  -27,  -35
2834259, 1710336066, "2024/3/13 13:21:6",  48,  -33,  1051,  0,  1,  -1,  -11,  -27,  -35
2834459, 1710336067, "2024/3/13 13:21:7",  3,  -58,  1003,  0,  -1,  0,  -12,  -25,  -37
2834659, 1710336067, "2024/3/13 13:21:7",  2,  -59,  1003,  0,  -1,  0,  -11,  -26,  -35
2834859, 1710336067, "2024/3/13 13:21:7",  6,  -68,  1006,  0,  -1,  -1,  -10,  -28,  -36
2835059, 1710336067, "2024/3/13 13:21:7",  4,  -57,  1001,  0,  -1,  0,  -9,  -28,  -35
2835259, 1710336067, "2024/3/13 13:21:7",  5,  -60,  1003,  0,  0,  0,  -10,  -26,  -37
2835459, 1710336068, "2024/3/13 13:21:8",  4,  -61,  1004,  0,  0,  -1,  -12,  -26,  -38
2835659, 1710336068, "2024/3/13 13:21:8",  -1,  -57,  1002,  0,  0,  -1,  -12,  -26,  -36
2835859, 1710336068, "2024/3/13 13:21:8",  3,  -61,  1006,  0,  0,  -1,  -11,  -27,  -37
2836059, 1710336068, "2024/3/13 13:21:8",  3,  -58,  1004,  0,  0,  0,  -12,  -26,  -34
2836259, 1710336068, "2024/3/13 13:21:8",  4,  -56,  1002,  0,  0,  -1,  -10,  -27,  -37
2836459, 1710336069, "2024/3/13 13:21:9",  0,  -58,  1003,  0,  0,  0,  -11,  -27,  -34
2836659, 1710336069, "2024/3/13 13:21:9",  6,  -65,  976,  0,  0,  -1,  -9,  -27,  -36
2836859, 1710336069, "2024/3/13 13:21:9",  8,  -66,  1002,  0,  0,  -1,  -10,  -28,  -36
2837059, 1710336069, "2024/3/13 13:21:9",  16,  -55,  1003,  0,  0,  0,  -11,  -27,  -36
2837259, 1710336069, "2024/3/13 13:21:9",  12,  -54,  1002,  0,  0,  -1,  -10,  -27,  -37
2837459, 1710336070, "2024/3/13 13:21:10",  9,  -60,  1000,  0,  -1,  -1,  -11,  -26,  -36
2837659, 1710336070, "2024/3/13 13:21:10",  7,  -57,  1000,  0,  0,  0,  -11,  -26,  -36
2837859, 1710336070, "2024/3/13 13:21:10",  6,  -56,  1007,  0,  0,  0,  -11,  -26,  -37
2838059, 1710336070, "2024/3/13 13:21:10",  5,  -64,  1003,  0,  -1,  -1,  -11,  -26,  -37
2838259, 1710336070, "2024/3/13 13:21:10",  1,  -57,  1001,  0,  0,  0,  -10,  -26,  -37
2838459, 1710336071, "2024/3/13 13:21:11",  4,  -61,  1005,  0,  0,  0,  -10,  -28,  -36
2838659, 1710336071, "2024/3/13 13:21:11",  8,  -57,  1006,  0,  0,  0,  -12,  -26,  -37
2838859, 1710336071, "2024/3/13 13:21:11",  12,  -51,  997,  0,  -1,  -1,  -10,  -26,  -37
2839059, 1710336071, "2024/3/13 13:21:11",  6,  -59,  1002,  0,  0,  -1,  -10,  -25,  -36
2839259, 1710336071, "2024/3/13 13:21:11",  4,  -60,  1002,  0,  0,  -1,  -11,  -25,  -37
2839459, 1710336072, "2024/3/13 13:21:12",  5,  -59,  1002,  0,  0,  -1,  -12,  -26,  -37
2839659, 1710336072, "2024/3/13 13:21:12",  -2,  -61,  998,  0,  0,  0,  -10,  -26,  -36
2839859, 1710336072, "2024/3/13 13:21:12",  9,  -60,  1004,  0,  0,  -1,  -10,  -27,  -36
2840059, 1710336072, "2024/3/13 13:21:12",  3,  -57,  1005,  0,  0,  0,  -11,  -27,  -37
2840259, 1710336072, "2024/3/13 13:21:12",  -1,  -54,  1003,  0,  0,  0,  -10,  -27,  -36
2840459, 1710336073, "2024/3/13 13:21:13",  0,  -58,  1006,  0,  0,  0,  -10,  -25,  -37
2840659, 1710336073, "2024/3/13 13:21:13",  0,  -57,  1005,  0,  -1,  -1,  -11,  -27,  -36
2840859, 1710336073, "2024/3/13 13:21:13",  2,  -60,  1002,  0,  0,  0,  -11,  -28,  -37
2841059, 1710336073, "2024/3/13 13:21:13",  10,  -62,  1003,  0,  0,  0,  -11,  -26,  -36
2841259, 1710336073, "2024/3/13 13:21:13",  11,  -56,  1007,  0,  0,  0,  -9,  -26,  -36
2841459, 1710336074, "2024/3/13 13:21:14",  7,  -63,  1004,  0,  0,  -1,  -10,  -25,  -36
2841659, 1710336074, "2024/3/13 13:21:14",  7,  -60,  1008,  0,  0,  -1,  -11,  -25,  -37
2841859, 1710336074, "2024/3/13 13:21:14",  0,  -61,  986,  0,  -1,  -1,  -11,  -28,  -36
2842059, 1710336074, "2024/3/13 13:21:14",  0,  -54,  1002,  0,  0,  0,  -11,  -26,  -36
2842259, 1710336074, "2024/3/13 13:21:14",  2,  -51,  1004,  0,  0,  -1,  -10,  -27,  -37
2842459, 1710336075, "2024/3/13 13:21:15",  7,  -54,  999,  0,  0,  -1,  -11,  -26,  -37
2842659, 1710336075, "2024/3/13 13:21:15",  8,  -58,  1006,  0,  0,  0,  -12,  -26,  -37
2842859, 1710336075, "2024/3/13 13:21:15",  8,  -67,  1010,  0,  -1,  -1,  -9,  -27,  -36
2843059, 1710336075, "2024/3/13 13:21:15",  12,  -63,  1004,  0,  0,  -1,  -11,  -26,  -36
2843259, 1710336075, "2024/3/13 13:21:15",  8,  -55,  1002,  0,  0,  -1,  -11,  -25,  -35
2843459, 1710336076, "2024/3/13 13:21:16",  5,  -60,  1002,  0,  0,  -1,  -12,  -27,  -37
2843659, 1710336076, "2024/3/13 13:21:16",  5,  -55,  1000,  0,  0,  0,  -10,  -27,  -36
2843859, 1710336076, "2024/3/13 13:21:16",  4,  -60,  1002,  0,  0,  -1,  -9,  -26,  -36
2844059, 1710336076, "2024/3/13 13:21:16",  5,  -53,  1004,  0,  0,  -1,  -10,  -27,  -37
2844259, 1710336076, "2024/3/13 13:21:16",  3,  -69,  1001,  0,  0,  -1,  -10,  -27,  -37
2844459, 1710336077, "2024/3/13 13:21:17",  5,  -52,  1002,  0,  -1,  0,  -10,  -26,  -37
2844659, 1710336077, "2024/3/13 13:21:17",  6,  -53,  1004,  0,  0,  0,  -10,  -26,  -38
2844859, 1710336077, "2024/3/13 13:21:17",  8,  -65,  1003,  0,  0,  -1,  -10,  -25,  -36
2845059, 1710336077, "2024/3/13 13:21:17",  11,  -58,  1002,  0,  0,  0,  -9,  -28,  -36
2845259, 1710336077, "2024/3/13 13:21:17",  10,  -56,  1004,  0,  0,  0,  -9,  -26,  -34
2845459, 1710336078, "2024/3/13 13:21:18",  2,  -58,  1008,  0,  0,  -1,  -10,  -25,  -36
2845659, 1710336078, "2024/3/13 13:21:18",  7,  -57,  1005,  0,  0,  0,  -10,  -26,  -35
2845859, 1710336078, "2024/3/13 13:21:18",  3,  -59,  1002,  0,  0,  -1,  -11,  -27,  -36
2846059, 1710336078, "2024/3/13 13:21:18",  7,  -64,  1005,  0,  0,  -1,  -9,  -26,  -36
2846259, 1710336078, "2024/3/13 13:21:18",  0,  -57,  1004,  0,  0,  -1,  -11,  -27,  -36
2846459, 1710336079, "2024/3/13 13:21:19",  1,  -55,  1003,  0,  0,  0,  -11,  -25,  -36
2846659, 1710336079, "2024/3/13 13:21:19",  3,  -58,  1004,  0,  0,  -1,  -11,  -27,  -37
2846859, 1710336079, "2024/3/13 13:21:19",  3,  -56,  1005,  0,  0,  -1,  -11,  -26,  -36
2847059, 1710336079, "2024/3/13 13:21:19",  5,  -62,  1001,  0,  0,  -1,  -11,  -28,  -36
2847259, 1710336079, "2024/3/13 13:21:19",  4,  -57,  1007,  0,  0,  -1,  -11,  -27,  -38
2847459, 1710336080, "2024/3/13 13:21:20",  4,  -56,  1002,  0,  0,  -1,  -11,  -28,  -36
2847659, 1710336080, "2024/3/13 13:21:20",  6,  -58,  1004,  0,  0,  -1,  -10,  -26,  -36
2847859, 1710336080, "2024/3/13 13:21:20",  6,  -59,  1004,  0,  0,  0,  -10,  -26,  -36
2848059, 1710336080, "2024/3/13 13:21:20",  5,  -57,  1004,  0,  0,  -1,  -10,  -27,  -35
2848259, 1710336080, "2024/3/13 13:21:20",  1,  -59,  1002,  0,  0,  -1,  -11,  -27,  -36
2848459, 1710336081, "2024/3/13 13:21:21",  5,  -57,  1003,  0,  0,  -1,  -11,  -26,  -36
2848659, 1710336081, "2024/3/13 13:21:21",  9,  -64,  1004,  0,  0,  -1,  -10,  -26,  -37
2848859, 1710336081, "2024/3/13 13:21:21",  6,  -55,  1004,  0,  0,  -1,  -11,  -27,  -36
2849059, 1710336081, "2024/3/13 13:21:21",  8,  -58,  1003,  0,  0,  -1,  -10,  -26,  -35
2849259, 1710336081, "2024/3/13 13:21:21",  8,  -59,  1006,  0,  0,  -1,  -9,  -26,  -37
2849459, 1710336082, "2024/3/13 13:21:22",  8,  -60,  1003,  0,  -1,  0,  -12,  -27,  -36
2849659, 1710336082, "2024/3/13 13:21:22",  4,  -55,  1005,  0,  0,  -1,  -10,  -26,  -36
2849859, 1710336082, "2024/3/13 13:21:22",  6,  -62,  1005,  0,  0,  -1,  -10,  -26,  -36
2850059, 1710336082, "2024/3/13 13:21:22",  4,  -61,  1003,  0,  0,  -1,  -10,  -25,  -36
2850259, 1710336082, "2024/3/13 13:21:22",  3,  -62,  1004,  0,  0,  0,  -10,  -26,  -37
2850459, 1710336083, "2024/3/13 13:21:23",  8,  -58,  1003,  0,  -1,  -1,  -10,  -27,  -36
2850659, 1710336083, "2024/3/13 13:21:23",  6,  -57,  1005,  0,  -1,  0,  -11,  -27,  -37
2850859, 1710336083, "2024/3/13 13:21:23",  4,  -58,  1005,  0,  0,  -1,  -9,  -27,  -35
2851059, 1710336083, "2024/3/13 13:21:23",  3,  -59,  1001,  0,  0,  -1,  -10,  -28,  -36
2851259, 1710336083, "2024/3/13 13:21:23",  1,  -55,  1002,  0,  0,  -1,  -11,  -25,  -37
2851459, 1710336084, "2024/3/13 13:21:24",  4,  -57,  1004,  0,  0,  0,  -10,  -27,  -36
2851659, 1710336084, "2024/3/13 13:21:24",  6,  -61,  1005,  0,  0,  -1,  -10,  -26,  -37
2851859, 1710336084, "2024/3/13 13:21:24",  3,  -57,  1001,  0,  0,  -1,  -12,  -27,  -37
2852059, 1710336084, "2024/3/13 13:21:24",  3,  -63,  1003,  0,  0,  -1,  -10,  -27,  -36
2852259, 1710336084, "2024/3/13 13:21:24",  0,  -61,  1005,  0,  0,  0,  -10,  -27,  -36
2852459, 1710336085, "2024/3/13 13:21:25",  7,  -55,  1002,  0,  0,  -1,  -10,  -26,  -36
2852659, 1710336085, "2024/3/13 13:21:25",  4,  -59,  1001,  0,  0,  0,  -10,  -27,  -36
2852859, 1710336085, "2024/3/13 13:21:25",  6,  -56,  1004,  0,  0,  -1,  -12,  -26,  -37
2853059, 1710336085, "2024/3/13 13:21:25",  4,  -64,  1005,  0,  0,  -1,  -10,  -25,  -36
2853259, 1710336085, "2024/3/13 13:21:25",  4,  -63,  1003,  0,  0,  -1,  -10,  -25,  -36
2853459, 1710336086, "2024/3/13 13:21:26",  6,  -66,  1001,  0,  0,  -1,  -11,  -27,  -36
2853659, 1710336086, "2024/3/13 13:21:26",  6,  -60,  1001,  0,  -1,  0,  -11,  -27,  -37
2853859, 1710336086, "2024/3/13 13:21:26",  9,  -55,  1004,  0,  0,  0,  -11,  -26,  -36
2854059, 1710336086, "2024/3/13 13:21:26",  2,  -56,  1004,  0,  0,  0,  -11,  -27,  -36
2854259, 1710336086, "2024/3/13 13:21:26",  7,  -54,  1002,  0,  0,  0,  -12,  -27,  -37
2854459, 1710336087, "2024/3/13 13:21:27",  8,  -60,  1001,  0,  -1,  0,  -11,  -26,  -37
2854659, 1710336087, "2024/3/13 13:21:27",  5,  -56,  1003,  0,  0,  0,  -9,  -29,  -36
2854859, 1710336087, "2024/3/13 13:21:27",  6,  -63,  1006,  0,  -1,  -1,  -12,  -28,  -37
2855059, 1710336087, "2024/3/13 13:21:27",  4,  -60,  1004,  0,  0,  -1,  -11,  -26,  -36
2855259, 1710336087, "2024/3/13 13:21:27",  3,  -53,  1006,  0,  0,  -1,  -10,  -26,  -36
2855459, 1710336088, "2024/3/13 13:21:28",  5,  -56,  1001,  0,  0,  0,  -10,  -26,  -38
2855659, 1710336088, "2024/3/13 13:21:28",  9,  -58,  1002,  0,  0,  0,  -10,  -26,  -37
2855859, 1710336088, "2024/3/13 13:21:28",  5,  -60,  1004,  0,  0,  -1,  -11,  -26,  -36
2856059, 1710336088, "2024/3/13 13:21:28",  4,  -61,  1006,  0,  0,  0,  -11,  -26,  -36
2856259, 1710336088, "2024/3/13 13:21:28",  6,  -54,  1001,  0,  0,  -1,  -10,  -26,  -36
2856459, 1710336089, "2024/3/13 13:21:29",  3,  -49,  1001,  0,  0,  -1,  -11,  -27,  -39
2856659, 1710336089, "2024/3/13 13:21:29",  1,  -60,  999,  0,  0,  -1,  -10,  -26,  -36
2856859, 1710336089, "2024/3/13 13:21:29",  4,  -63,  1004,  0,  0,  -1,  -10,  -28,  -36
2857059, 1710336089, "2024/3/13 13:21:29",  4,  -61,  999,  0,  -1,  -1,  -11,  -26,  -37
2857259, 1710336089, "2024/3/13 13:21:29",  6,  -61,  1003,  0,  -1,  0,  -11,  -27,  -36
2857459, 1710336090, "2024/3/13 13:21:30",  1,  -56,  1005,  0,  0,  -1,  -9,  -25,  -36
2857659, 1710336090, "2024/3/13 13:21:30",  8,  -57,  1004,  0,  0,  -1,  -12,  -26,  -36
2857859, 1710336090, "2024/3/13 13:21:30",  7,  -56,  1002,  0,  0,  0,  -10,  -26,  -37
2858059, 1710336090, "2024/3/13 13:21:30",  5,  -60,  1005,  0,  0,  0,  -11,  -28,  -37
2858259, 1710336090, "2024/3/13 13:21:30",  5,  -63,  1006,  0,  -1,  -1,  -9,  -26,  -37
2858459, 1710336091, "2024/3/13 13:21:31",  8,  -64,  1004,  0,  0,  0,  -12,  -27,  -37
2858659, 1710336091, "2024/3/13 13:21:31",  7,  -60,  1003,  0,  0,  -1,  -10,  -29,  -36
2858859, 1710336091, "2024/3/13 13:21:31",  7,  -51,  1004,  0,  0,  0,  -12,  -27,  -38
2859059, 1710336091, "2024/3/13 13:21:31",  2,  -56,  1005,  0,  -1,  -1,  -11,  -26,  -37
2859259, 1710336091, "2024/3/13 13:21:31",  3,  -56,  1003,  0,  0,  0,  -11,  -25,  -36
2859459, 1710336092, "2024/3/13 13:21:32",  4,  -54,  1004,  0,  0,  0,  -12,  -27,  -37
2859659, 1710336092, "2024/3/13 13:21:32",  4,  -56,  1004,  0,  0,  -1,  -10,  -27,  -37
2859859, 1710336092, "2024/3/13 13:21:32",  10,  -62,  1004,  0,  0,  0,  -10,  -27,  -37
2860059, 1710336092, "2024/3/13 13:21:32",  1,  -57,  1003,  0,  0,  -1,  -10,  -28,  -36
2860259, 1710336092, "2024/3/13 13:21:32",  9,  -57,  1004,  0,  0,  -1,  -10,  -25,  -36
2860459, 1710336093, "2024/3/13 13:21:33",  10,  -61,  1004,  0,  0,  -1,  -12,  -25,  -35
2860659, 1710336093, "2024/3/13 13:21:33",  0,  -64,  1004,  0,  0,  0,  -10,  -26,  -36
2860859, 1710336093, "2024/3/13 13:21:33",  6,  -58,  1003,  0,  -1,  -1,  -12,  -26,  -36
2861059, 1710336093, "2024/3/13 13:21:33",  9,  -55,  1004,  0,  0,  0,  -10,  -25,  -36
2861259, 1710336093, "2024/3/13 13:21:33",  7,  -62,  1005,  0,  0,  -1,  -11,  -27,  -36
2861459, 1710336094, "2024/3/13 13:21:34",  7,  -60,  1001,  0,  0,  -1,  -11,  -27,  -37
2861659, 1710336094, "2024/3/13 13:21:34",  11,  -65,  1000,  0,  0,  0,  -10,  -27,  -36
2861859, 1710336094, "2024/3/13 13:21:34",  2,  -58,  1004,  0,  0,  -1,  -10,  -27,  -37
2862059, 1710336094, "2024/3/13 13:21:34",  7,  -64,  1004,  0,  0,  -1,  -9,  -27,  -37
2862259, 1710336094, "2024/3/13 13:21:34",  5,  -59,  1000,  0,  0,  0,  -10,  -26,  -36
2862459, 1710336095, "2024/3/13 13:21:35",  1,  -57,  1004,  0,  0,  -1,  -11,  -26,  -36
2862659, 1710336095, "2024/3/13 13:21:35",  4,  -54,  1004,  0,  0,  -1,  -10,  -27,  -36
2862859, 1710336095, "2024/3/13 13:21:35",  3,  -57,  1003,  0,  0,  -1,  -11,  -25,  -36
2863059, 1710336095, "2024/3/13 13:21:35",  7,  -61,  1006,  0,  -1,  -1,  -9,  -27,  -36
2863259, 1710336095, "2024/3/13 13:21:35",  8,  -58,  1006,  0,  0,  0,  -11,  -28,  -36
2863459, 1710336096, "2024/3/13 13:21:36",  4,  -59,  1004,  0,  0,  -1,  -11,  -27,  -35
2863659, 1710336096, "2024/3/13 13:21:36",  7,  -62,  1002,  0,  -1,  0,  -10,  -26,  -36
2863859, 1710336096, "2024/3/13 13:21:36",  5,  -57,  1003,  0,  0,  0,  -11,  -26,  -36
2864059, 1710336096, "2024/3/13 13:21:36",  5,  -62,  1004,  0,  0,  -1,  -11,  -27,  -36
2864259, 1710336096, "2024/3/13 13:21:36",  5,  -63,  1004,  0,  0,  0,  -11,  -26,  -36
2864459, 1710336097, "2024/3/13 13:21:37",  1,  -58,  999,  0,  0,  -1,  -11,  -25,  -37
2864659, 1710336097, "2024/3/13 13:21:37",  7,  -50,  1004,  0,  0,  0,  -11,  -27,  -36
2864859, 1710336097, "2024/3/13 13:21:37",  8,  -56,  1005,  0,  0,  0,  -11,  -27,  -36
2865059, 1710336097, "2024/3/13 13:21:37",  4,  -62,  1003,  0,  0,  0,  -12,  -27,  -36
2865259, 1710336097, "2024/3/13 13:21:37",  4,  -61,  1003,  0,  0,  0,  -10,  -26,  -36
2865459, 1710336098, "2024/3/13 13:21:38",  1,  -56,  1003,  0,  0,  -1,  -10,  -27,  -37
2865659, 1710336098, "2024/3/13 13:21:38",  8,  -57,  1004,  0,  0,  -1,  -10,  -27,  -37
2865859, 1710336098, "2024/3/13 13:21:38",  2,  -57,  1004,  0,  0,  -1,  -12,  -26,  -36
2866059, 1710336098, "2024/3/13 13:21:38",  4,  -63,  1002,  0,  0,  -1,  -12,  -27,  -37
2866259, 1710336098, "2024/3/13 13:21:38",  7,  -53,  1002,  0,  0,  -1,  -12,  -26,  -37
2866459, 1710336099, "2024/3/13 13:21:39",  8,  -58,  1004,  0,  0,  0,  -11,  -26,  -37
2866659, 1710336099, "2024/3/13 13:21:39",  5,  -55,  1007,  0,  -1,  -1,  -10,  -27,  -36
2866859, 1710336099, "2024/3/13 13:21:39",  4,  -58,  1003,  0,  0,  -1,  -11,  -26,  -36
2867059, 1710336099, "2024/3/13 13:21:39",  8,  -54,  1002,  0,  0,  -1,  -10,  -27,  -36
2867259, 1710336099, "2024/3/13 13:21:39",  7,  -60,  1001,  0,  0,  0,  -10,  -26,  -36
2867459, 1710336100, "2024/3/13 13:21:40",  4,  -65,  1002,  0,  0,  0,  -11,  -26,  -35
2867659, 1710336100, "2024/3/13 13:21:40",  9,  -63,  1001,  0,  0,  -1,  -11,  -27,  -36
2867859, 1710336100, "2024/3/13 13:21:40",  8,  -58,  1003,  0,  0,  -1,  -11,  -28,  -37
2868059, 1710336100, "2024/3/13 13:21:40",  7,  -59,  1001,  0,  0,  0,  -11,  -26,  -37
2868259, 1710336100, "2024/3/13 13:21:40",  3,  -55,  1003,  0,  0,  -1,  -12,  -26,  -36
2868459, 1710336101, "2024/3/13 13:21:41",  5,  -57,  1003,  0,  0,  -1,  -11,  -27,  -37
2868659, 1710336101, "2024/3/13 13:21:41",  4,  -59,  1001,  0,  0,  -1,  -10,  -27,  -37
2868859, 1710336101, "2024/3/13 13:21:41",  2,  -61,  1004,  0,  0,  -1,  -11,  -26,  -37
2869059, 1710336101, "2024/3/13 13:21:41",  7,  -61,  1000,  0,  0,  -1,  -10,  -27,  -37
2869259, 1710336101, "2024/3/13 13:21:41",  6,  -59,  1002,  0,  -1,  0,  -10,  -26,  -36
2869459, 1710336102, "2024/3/13 13:21:42",  5,  -65,  1001,  0,  0,  -1,  -11,  -25,  -36
2869659, 1710336102, "2024/3/13 13:21:42",  6,  -61,  1004,  0,  0,  -1,  -10,  -26,  -36
2869859, 1710336102, "2024/3/13 13:21:42",  12,  -59,  1003,  0,  0,  -1,  -11,  -26,  -37
2870059, 1710336102, "2024/3/13 13:21:42",  3,  -56,  1002,  0,  0,  0,  -10,  -26,  -36
2870259, 1710336102, "2024/3/13 13:21:42",  8,  -54,  1000,  0,  0,  0,  -10,  -27,  -36
2870459, 1710336103, "2024/3/13 13:21:43",  8,  -57,  1001,  0,  -1,  -1,  -10,  -27,  -38
2870659, 1710336103, "2024/3/13 13:21:43",  -1,  -52,  1004,  0,  -1,  -1,  -12,  -29,  -36
2870859, 1710336103, "2024/3/13 13:21:43",  3,  -59,  1004,  0,  0,  -1,  -10,  -26,  -37
2871059, 1710336103, "2024/3/13 13:21:43",  -2,  -59,  1001,  0,  0,  -1,  -10,  -27,  -35
2871259, 1710336103, "2024/3/13 13:21:43",  1,  -55,  1004,  0,  0,  -1,  -11,  -26,  -36
2871459, 1710336104, "2024/3/13 13:21:44",  10,  -64,  1000,  0,  0,  0,  -11,  -27,  -35
2871659, 1710336104, "2024/3/13 13:21:44",  6,  -59,  1004,  0,  0,  0,  -11,  -26,  -36
2871859, 1710336104, "2024/3/13 13:21:44",  9,  -57,  1002,  0,  0,  0,  -11,  -28,  -36
2872059, 1710336104, "2024/3/13 13:21:44",  9,  -52,  1001,  0,  0,  -1,  -11,  -27,  -37
2872259, 1710336104, "2024/3/13 13:21:44",  14,  -54,  1000,  0,  0,  0,  -10,  -26,  -36
2872459, 1710336105, "2024/3/13 13:21:45",  15,  -53,  1004,  0,  0,  -1,  -10,  -27,  -36
2872659, 1710336105, "2024/3/13 13:21:45",  5,  -64,  1002,  0,  0,  -1,  -12,  -28,  -37
2872859, 1710336105, "2024/3/13 13:21:45",  10,  -65,  1004,  0,  0,  -1,  -11,  -28,  -35
2873059, 1710336105, "2024/3/13 13:21:45",  3,  -58,  1003,  0,  0,  -1,  -11,  -27,  -37
2873259, 1710336105, "2024/3/13 13:21:45",  5,  -55,  1001,  0,  0,  -1,  -11,  -28,  -36
2873459, 1710336106, "2024/3/13 13:21:46",  4,  -58,  1003,  0,  0,  -1,  -11,  -25,  -36
2873659, 1710336106, "2024/3/13 13:21:46",  4,  -61,  1004,  0,  0,  0,  -10,  -25,  -39
2873859, 1710336106, "2024/3/13 13:21:46",  17,  -59,  1003,  0,  0,  -1,  -10,  -26,  -36
2874059, 1710336106, "2024/3/13 13:21:46",  12,  -50,  1002,  1,  0,  -1,  -9,  -28,  -36
2874259, 1710336106, "2024/3/13 13:21:46",  13,  -52,  1000,  0,  0,  0,  -9,  -28,  -36
2874459, 1710336107, "2024/3/13 13:21:47",  12,  -54,  1002,  0,  0,  -1,  -10,  -24,  -37
2874659, 1710336107, "2024/3/13 13:21:47",  7,  -59,  999,  0,  0,  0,  -9,  -25,  -35
2874859, 1710336107, "2024/3/13 13:21:47",  -5,  -46,  991,  0,  -1,  -1,  -10,  -26,  -37
2875059, 1710336107, "2024/3/13 13:21:47",  10,  -56,  1002,  0,  0,  0,  -11,  -27,  -37
2875259, 1710336107, "2024/3/13 13:21:47",  6,  -56,  1002,  0,  0,  -1,  -10,  -25,  -36
2875459, 1710336108, "2024/3/13 13:21:48",  5,  -63,  1003,  0,  0,  -1,  -12,  -27,  -37
2875659, 1710336108, "2024/3/13 13:21:48",  12,  -57,  1004,  0,  0,  0,  -10,  -27,  -36
2875859, 1710336108, "2024/3/13 13:21:48",  5,  -62,  1005,  0,  0,  -1,  -11,  -27,  -37
2876059, 1710336108, "2024/3/13 13:21:48",  3,  -42,  1005,  0,  0,  0,  -11,  -27,  -36
2876259, 1710336108, "2024/3/13 13:21:48",  1,  -57,  1001,  0,  0,  -1,  -11,  -26,  -36
2876459, 1710336109, "2024/3/13 13:21:49",  16,  -63,  1007,  0,  0,  -1,  -11,  -27,  -37
2876659, 1710336109, "2024/3/13 13:21:49",  -4,  -63,  1000,  0,  0,  -1,  -9,  -25,  -37
2876859, 1710336109, "2024/3/13 13:21:49",  0,  -50,  1003,  0,  0,  -1,  -10,  -25,  -37
2877059, 1710336109, "2024/3/13 13:21:49",  8,  -59,  1003,  0,  0,  0,  -11,  -26,  -37
2877259, 1710336109, "2024/3/13 13:21:49",  2,  -59,  1003,  0,  -1,  -1,  -9,  -27,  -36
2877459, 1710336110, "2024/3/13 13:21:50",  0,  -54,  1001,  0,  -1,  -1,  -11,  -26,  -37
2877659, 1710336110, "2024/3/13 13:21:50",  10,  -48,  1001,  0,  0,  0,  -11,  -25,  -36
2877859, 1710336110, "2024/3/13 13:21:50",  7,  -55,  1008,  0,  0,  -1,  -11,  -26,  -37
2878059, 1710336110, "2024/3/13 13:21:50",  6,  -57,  1006,  0,  -1,  -1,  -11,  -27,  -36
2878259, 1710336110, "2024/3/13 13:21:50",  6,  -58,  1005,  0,  0,  -1,  -10,  -25,  -37
2878459, 1710336111, "2024/3/13 13:21:51",  15,  -59,  1003,  0,  -1,  -1,  -10,  -27,  -37
2878659, 1710336111, "2024/3/13 13:21:51",  8,  -65,  1001,  0,  0,  0,  -11,  -27,  -36
2878859, 1710336111, "2024/3/13 13:21:51",  8,  -63,  1004,  0,  0,  -1,  -10,  -28,  -36
2879059, 1710336111, "2024/3/13 13:21:51",  8,  -62,  1001,  0,  0,  0,  -11,  -26,  -36
2879259, 1710336111, "2024/3/13 13:21:51",  5,  -56,  1000,  0,  0,  -1,  -11,  -26,  -37
2879459, 1710336112, "2024/3/13 13:21:52",  11,  -58,  1006,  0,  0,  0,  -10,  -26,  -37
2879659, 1710336112, "2024/3/13 13:21:52",  5,  -65,  1001,  0,  0,  -1,  -10,  -27,  -36
2879859, 1710336112, "2024/3/13 13:21:52",  3,  -61,  1001,  0,  -1,  0,  -11,  -28,  -36
2880059, 1710336112, "2024/3/13 13:21:52",  7,  -61,  1005,  0,  0,  -1,  -11,  -27,  -36
2880259, 1710336112, "2024/3/13 13:21:52",  8,  -55,  1004,  0,  -1,  -1,  -11,  -26,  -37
2880459, 1710336113, "2024/3/13 13:21:53",  1,  -57,  1004,  0,  0,  -1,  -10,  -28,  -37
2880659, 1710336113, "2024/3/13 13:21:53",  5,  -61,  1001,  0,  0,  0,  -11,  -27,  -35
2880859, 1710336113, "2024/3/13 13:21:53",  11,  -62,  1002,  0,  0,  -1,  -10,  -25,  -36
2881059, 1710336113, "2024/3/13 13:21:53",  5,  -59,  1003,  0,  0,  -1,  -10,  -27,  -36
2881259, 1710336113, "2024/3/13 13:21:53",  10,  -53,  999,  0,  0,  -1,  -10,  -26,  -37
2881459, 1710336114, "2024/3/13 13:21:54",  0,  -60,  1003,  0,  -1,  0,  -9,  -28,  -36
2881659, 1710336114, "2024/3/13 13:21:54",  8,  -54,  1006,  0,  0,  -1,  -12,  -27,  -36
2881859, 1710336114, "2024/3/13 13:21:54",  13,  -63,  1005,  0,  0,  -1,  -13,  -27,  -37
2882059, 1710336114, "2024/3/13 13:21:54",  11,  -65,  1001,  0,  0,  -1,  -11,  -27,  -36
2882259, 1710336114, "2024/3/13 13:21:54",  3,  -60,  1003,  0,  0,  0,  -13,  -26,  -37
2882459, 1710336115, "2024/3/13 13:21:55",  8,  -43,  998,  0,  -1,  0,  -10,  -27,  -38
2882659, 1710336115, "2024/3/13 13:21:55",  8,  -50,  1004,  0,  0,  0,  -11,  -27,  -36
2882859, 1710336115, "2024/3/13 13:21:55",  8,  -63,  1004,  1,  0,  -1,  -10,  -27,  -36
2883059, 1710336115, "2024/3/13 13:21:55",  10,  -54,  1001,  0,  -1,  0,  -10,  -28,  -36
2883259, 1710336115, "2024/3/13 13:21:55",  4,  -56,  1001,  0,  0,  -1,  -10,  -27,  -37
2883459, 1710336116, "2024/3/13 13:21:56",  4,  -56,  1006,  0,  0,  0,  -11,  -26,  -36
2883659, 1710336116, "2024/3/13 13:21:56",  7,  -64,  1004,  0,  0,  0,  -11,  -27,  -36
2883859, 1710336116, "2024/3/13 13:21:56",  5,  -59,  1003,  0,  0,  -1,  -10,  -28,  -36
2884059, 1710336116, "2024/3/13 13:21:56",  2,  -62,  1004,  0,  0,  -1,  -11,  -27,  -37
2884259, 1710336116, "2024/3/13 13:21:56",  2,  -51,  1005,  0,  0,  0,  -10,  -27,  -36
2884459, 1710336117, "2024/3/13 13:21:57",  9,  -60,  1003,  0,  0,  0,  -12,  -25,  -36
2884659, 1710336117, "2024/3/13 13:21:57",  2,  -63,  1005,  0,  0,  -1,  -10,  -27,  -35
2884859, 1710336117, "2024/3/13 13:21:57",  6,  -61,  1005,  0,  0,  -1,  -10,  -28,  -36
2885059, 1710336117, "2024/3/13 13:21:57",  5,  -57,  1001,  0,  0,  -1,  -9,  -26,  -36
2885259, 1710336117, "2024/3/13 13:21:57",  10,  -58,  1000,  0,  -1,  -1,  -12,  -27,  -36
2885459, 1710336118, "2024/3/13 13:21:58",  11,  -49,  1008,  1,  0,  -1,  -12,  -26,  -35
2885659, 1710336118, "2024/3/13 13:21:58",  6,  -58,  1005,  0,  0,  0,  -10,  -27,  -37
2885859, 1710336118, "2024/3/13 13:21:58",  15,  -76,  989,  -1,  -1,  -1,  -11,  -27,  -36
2886059, 1710336118, "2024/3/13 13:21:58",  3,  -56,  1001,  0,  0,  -1,  -11,  -26,  -38
2886259, 1710336118, "2024/3/13 13:21:58",  2,  -62,  1005,  0,  0,  0,  -12,  -27,  -36
2886459, 1710336119, "2024/3/13 13:21:59",  8,  -60,  1002,  0,  -1,  -1,  -11,  -27,  -36
2886659, 1710336119, "2024/3/13 13:21:59",  2,  -58,  1004,  0,  0,  -1,  -10,  -25,  -36
2886859, 1710336119, "2024/3/13 13:21:59",  10,  -57,  1005,  0,  0,  0,  -11,  -27,  -38
2887059, 1710336119, "2024/3/13 13:21:59",  4,  -59,  1003,  0,  0,  -1,  -10,  -26,  -37
2887259, 1710336119, "2024/3/13 13:21:59",  7,  -61,  1003,  0,  0,  0,  -9,  -28,  -36
2887459, 1710336120, "2024/3/13 13:22:0",  1,  -57,  1001,  0,  0,  0,  -12,  -25,  -37
2887659, 1710336120, "2024/3/13 13:22:0",  8,  -60,  1002,  0,  -1,  -1,  -10,  -28,  -35
2887859, 1710336120, "2024/3/13 13:22:0",  7,  -51,  1000,  0,  0,  0,  -11,  -27,  -38
2888059, 1710336120, "2024/3/13 13:22:0",  5,  -51,  1003,  0,  0,  0,  -10,  -27,  -37
2888259, 1710336120, "2024/3/13 13:22:0",  8,  -63,  1005,  0,  0,  0,  -9,  -27,  -36
2888459, 1710336121, "2024/3/13 13:22:1",  10,  -54,  1009,  0,  0,  -1,  -10,  -26,  -37
2888659, 1710336121, "2024/3/13 13:22:1",  5,  -64,  991,  0,  -1,  -1,  -10,  -26,  -36
2888859, 1710336121, "2024/3/13 13:22:1",  5,  -64,  998,  0,  -1,  0,  -11,  -26,  -37
2889059, 1710336121, "2024/3/13 13:22:1",  6,  -57,  998,  0,  0,  -1,  -11,  -25,  -36
2889259, 1710336121, "2024/3/13 13:22:1",  0,  -57,  1003,  0,  -1,  -1,  -10,  -26,  -36
2889459, 1710336122, "2024/3/13 13:22:2",  1,  -55,  1006,  0,  0,  -1,  -11,  -26,  -37
2889659, 1710336122, "2024/3/13 13:22:2",  3,  -59,  1008,  0,  0,  -1,  -11,  -26,  -37
2889859, 1710336122, "2024/3/13 13:22:2",  -6,  -66,  1006,  0,  0,  -1,  -11,  -27,  -36
2890059, 1710336122, "2024/3/13 13:22:2",  7,  -64,  1006,  0,  0,  -1,  -11,  -28,  -34
2890259, 1710336122, "2024/3/13 13:22:2",  2,  -61,  999,  0,  -1,  -1,  -9,  -27,  -36
2890459, 1710336123, "2024/3/13 13:22:3",  -5,  -61,  1007,  1,  0,  0,  -8,  -26,  -36
2890659, 1710336123, "2024/3/13 13:22:3",  10,  -62,  1000,  0,  -1,  -1,  -10,  -28,  -36
2890859, 1710336123, "2024/3/13 13:22:3",  7,  -63,  1005,  0,  0,  -1,  -10,  -28,  -36
2891059, 1710336123, "2024/3/13 13:22:3",  10,  -50,  1001,  0,  0,  -1,  -10,  -25,  -38
2891259, 1710336123, "2024/3/13 13:22:3",  9,  -61,  1005,  0,  0,  0,  -10,  -26,  -36
2891459, 1710336124, "2024/3/13 13:22:4",  8,  -60,  1004,  0,  0,  -1,  -11,  -25,  -34
2891659, 1710336124, "2024/3/13 13:22:4",  2,  -59,  1005,  0,  0,  -1,  -10,  -26,  -37
2891859, 1710336124, "2024/3/13 13:22:4",  2,  -53,  998,  0,  0,  0,  -9,  -25,  -37
2892059, 1710336124, "2024/3/13 13:22:4",  2,  -58,  1004,  0,  0,  0,  -11,  -27,  -38
2892259, 1710336124, "2024/3/13 13:22:4",  0,  -60,  1008,  0,  0,  -1,  -9,  -28,  -37
2892459, 1710336125, "2024/3/13 13:22:5",  0,  -55,  1001,  0,  -1,  0,  -11,  -27,  -37
2892659, 1710336125, "2024/3/13 13:22:5",  3,  -62,  1004,  0,  0,  -1,  -10,  -25,  -36
2892859, 1710336125, "2024/3/13 13:22:5",  3,  -61,  1010,  0,  0,  -1,  -10,  -25,  -36
2893059, 1710336125, "2024/3/13 13:22:5",  5,  -63,  998,  0,  0,  -1,  -12,  -26,  -37
2893259, 1710336126, "2024/3/13 13:22:6",  3,  -64,  1008,  0,  0,  -1,  -12,  -26,  -36
2893459, 1710336126, "2024/3/13 13:22:6",  -8,  -73,  978,  0,  -1,  -1,  -12,  -28,  -36
2893659, 1710336126, "2024/3/13 13:22:6",  -2,  -61,  1000,  0,  -1,  -1,  -10,  -27,  -36
2893859, 1710336126, "2024/3/13 13:22:6",  8,  -54,  1005,  0,  0,  -1,  -11,  -27,  -36
2894059, 1710336126, "2024/3/13 13:22:6",  16,  -62,  1014,  0,  0,  0,  -11,  -26,  -36
2894259, 1710336127, "2024/3/13 13:22:7",  1,  -56,  994,  0,  0,  0,  -11,  -28,  -36
2894459, 1710336127, "2024/3/13 13:22:7",  1,  -59,  1008,  0,  0,  -1,  -11,  -26,  -36
2894659, 1710336127, "2024/3/13 13:22:7",  3,  -60,  1006,  0,  0,  -1,  -11,  -27,  -36
2894859, 1710336127, "2024/3/13 13:22:7",  4,  -62,  1002,  0,  0,  0,  -10,  -27,  -36
2895059, 1710336127, "2024/3/13 13:22:7",  5,  -55,  1004,  0,  0,  -1,  -11,  -26,  -36
2895259, 1710336128, "2024/3/13 13:22:8",  3,  -61,  1003,  0,  0,  -1,  -9,  -25,  -37
2895459, 1710336128, "2024/3/13 13:22:8",  2,  -58,  1005,  0,  0,  -1,  -10,  -26,  -37
2895659, 1710336128, "2024/3/13 13:22:8",  7,  -61,  1004,  0,  0,  -1,  -9,  -27,  -37
2895859, 1710336128, "2024/3/13 13:22:8",  6,  -64,  1003,  0,  0,  -1,  -11,  -26,  -37
2896059, 1710336128, "2024/3/13 13:22:8",  5,  -52,  1001,  0,  -1,  -1,  -10,  -27,  -37
2896259, 1710336129, "2024/3/13 13:22:9",  5,  -60,  1004,  0,  0,  -1,  -10,  -28,  -37
2896459, 1710336129, "2024/3/13 13:22:9",  3,  -58,  1004,  0,  0,  0,  -11,  -27,  -37
2896659, 1710336129, "2024/3/13 13:22:9",  5,  -57,  1003,  0,  0,  -1,  -10,  -26,  -36
2896859, 1710336129, "2024/3/13 13:22:9",  2,  -59,  1005,  0,  0,  0,  -11,  -27,  -36
2897059, 1710336129, "2024/3/13 13:22:9",  4,  -61,  1015,  -1,  -1,  0,  -10,  -27,  -34
2897259, 1710336130, "2024/3/13 13:22:10",  -6,  -56,  1006,  0,  -1,  0,  -13,  -26,  -36
2897459, 1710336130, "2024/3/13 13:22:10",  4,  -65,  1002,  0,  0,  0,  -11,  -27,  -36
2897659, 1710336130, "2024/3/13 13:22:10",  5,  -60,  1000,  0,  0,  0,  -10,  -26,  -36
2897859, 1710336130, "2024/3/13 13:22:10",  7,  -55,  1003,  0,  -1,  -1,  -10,  -26,  -38
2898059, 1710336130, "2024/3/13 13:22:10",  6,  -58,  1004,  0,  -1,  -1,  -10,  -26,  -35
2898259, 1710336131, "2024/3/13 13:22:11",  4,  -57,  1002,  0,  0,  0,  -12,  -27,  -37
2898459, 1710336131, "2024/3/13 13:22:11",  6,  -60,  1010,  0,  -1,  0,  -11,  -26,  -36
2898659, 1710336131, "2024/3/13 13:22:11",  10,  -58,  1006,  0,  0,  0,  -11,  -27,  -36
2898859, 1710336131, "2024/3/13 13:22:11",  5,  -60,  1003,  0,  0,  0,  -10,  -26,  -36
2899059, 1710336131, "2024/3/13 13:22:11",  2,  -60,  1007,  0,  0,  -1,  -12,  -27,  -36
2899259, 1710336132, "2024/3/13 13:22:12",  -2,  -55,  1004,  0,  0,  -1,  -12,  -27,  -37
2899459, 1710336132, "2024/3/13 13:22:12",  4,  -72,  1007,  0,  0,  -1,  -11,  -27,  -37
2899659, 1710336132, "2024/3/13 13:22:12",  2,  -66,  1005,  0,  0,  -1,  -10,  -27,  -36
2899859, 1710336132, "2024/3/13 13:22:12",  6,  -58,  999,  0,  0,  0,  -13,  -27,  -36
2900059, 1710336132, "2024/3/13 13:22:12",  8,  -46,  1010,  0,  0,  0,  -10,  -26,  -37
2900259, 1710336133, "2024/3/13 13:22:13",  7,  -56,  1007,  0,  -1,  -1,  -10,  -26,  -35
2900459, 1710336133, "2024/3/13 13:22:13",  10,  -61,  1006,  0,  0,  0,  -11,  -27,  -37
2900659, 1710336133, "2024/3/13 13:22:13",  5,  -57,  1002,  0,  0,  0,  -9,  -26,  -35
2900859, 1710336133, "2024/3/13 13:22:13",  12,  -50,  1015,  0,  0,  0,  -10,  -26,  -35
2901059, 1710336133, "2024/3/13 13:22:13",  16,  -59,  1004,  0,  0,  -1,  -12,  -26,  -37
2901259, 1710336134, "2024/3/13 13:22:14",  0,  -57,  995,  0,  0,  -1,  -10,  -26,  -37
2901459, 1710336134, "2024/3/13 13:22:14",  7,  -56,  1002,  0,  0,  -1,  -11,  -26,  -37
2901659, 1710336134, "2024/3/13 13:22:14",  7,  -61,  1005,  0,  0,  -1,  -10,  -26,  -36
2901859, 1710336134, "2024/3/13 13:22:14",  6,  -66,  1002,  0,  0,  -1,  -11,  -25,  -36
2902059, 1710336134, "2024/3/13 13:22:14",  1,  -59,  1002,  0,  0,  0,  -10,  -27,  -36
2902259, 1710336135, "2024/3/13 13:22:15",  2,  -64,  1005,  0,  0,  0,  -10,  -26,  -36
2902459, 1710336135, "2024/3/13 13:22:15",  0,  -57,  1003,  0,  0,  -1,  -10,  -26,  -38
2902659, 1710336135, "2024/3/13 13:22:15",  2,  -60,  1001,  0,  -1,  -1,  -11,  -26,  -37
2902859, 1710336135, "2024/3/13 13:22:15",  -3,  -58,  1001,  0,  0,  -1,  -9,  -26,  -36
2903059, 1710336135, "2024/3/13 13:22:15",  10,  -55,  1001,  0,  -1,  -1,  -11,  -27,  -36
2903259, 1710336136, "2024/3/13 13:22:16",  7,  -64,  1000,  0,  0,  0,  -10,  -26,  -38
2903459, 1710336136, "2024/3/13 13:22:16",  5,  -71,  1001,  1,  0,  0,  -10,  -27,  -36
2903659, 1710336136, "2024/3/13 13:22:16",  0,  -58,  1003,  0,  0,  0,  -11,  -27,  -37
2903859, 1710336136, "2024/3/13 13:22:16",  0,  -59,  1002,  0,  -1,  -1,  -10,  -25,  -37
2904059, 1710336136, "2024/3/13 13:22:16",  6,  -61,  1003,  0,  0,  0,  -10,  -26,  -37
2904259, 1710336137, "2024/3/13 13:22:17",  3,  -53,  1000,  0,  0,  0,  -11,  -25,  -37
2904459, 1710336137, "2024/3/13 13:22:17",  8,  -54,  1002,  0,  0,  -1,  -9,  -25,  -37
2904659, 1710336137, "2024/3/13 13:22:17",  12,  -57,  1002,  0,  0,  0,  -11,  -28,  -36
2904859, 1710336137, "2024/3/13 13:22:17",  7,  -54,  1006,  0,  0,  -1,  -9,  -28,  -36
2905059, 1710336137, "2024/3/13 13:22:17",  6,  -60,  1003,  0,  0,  0,  -12,  -27,  -37
2905259, 1710336138, "2024/3/13 13:22:18",  5,  -61,  1004,  0,  -1,  -1,  -10,  -26,  -36
2905459, 1710336138, "2024/3/13 13:22:18",  12,  -61,  1000,  0,  0,  0,  -10,  -27,  -36
2905659, 1710336138, "2024/3/13 13:22:18",  6,  -60,  1004,  0,  0,  -1,  -10,  -25,  -37
2905859, 1710336138, "2024/3/13 13:22:18",  6,  -60,  1005,  0,  0,  -1,  -9,  -27,  -36
2906059, 1710336138, "2024/3/13 13:22:18",  7,  -60,  1001,  0,  0,  0,  -11,  -27,  -38
2906259, 1710336139, "2024/3/13 13:22:19",  10,  -60,  1003,  0,  0,  0,  -11,  -27,  -36
2906459, 1710336139, "2024/3/13 13:22:19",  3,  -60,  1004,  0,  0,  0,  -12,  -25,  -37
2906659, 1710336139, "2024/3/13 13:22:19",  11,  -61,  1002,  0,  0,  0,  -10,  -26,  -38
2906859, 1710336139, "2024/3/13 13:22:19",  5,  -58,  1002,  0,  0,  -1,  -11,  -26,  -37
2907059, 1710336139, "2024/3/13 13:22:19",  8,  -61,  1004,  0,  0,  -1,  -10,  -27,  -38
2907259, 1710336140, "2024/3/13 13:22:20",  3,  -60,  1004,  0,  0,  0,  -11,  -27,  -36
2907459, 1710336140, "2024/3/13 13:22:20",  6,  -60,  1004,  0,  0,  -1,  -11,  -26,  -36
2907659, 1710336140, "2024/3/13 13:22:20",  6,  -62,  1003,  0,  0,  -1,  -12,  -25,  -36
2907859, 1710336140, "2024/3/13 13:22:20",  6,  -56,  1002,  0,  -1,  0,  -11,  -27,  -37
2908059, 1710336140, "2024/3/13 13:22:20",  6,  -60,  1004,  0,  0,  0,  -10,  -26,  -35
2908259, 1710336141, "2024/3/13 13:22:21",  4,  -62,  1006,  0,  0,  -1,  -10,  -27,  -36
2908459, 1710336141, "2024/3/13 13:22:21",  8,  -57,  1001,  0,  0,  -1,  -10,  -27,  -37
2908659, 1710336141, "2024/3/13 13:22:21",  5,  -58,  1005,  0,  0,  0,  -9,  -27,  -36
2908859, 1710336141, "2024/3/13 13:22:21",  8,  -61,  1004,  0,  0,  -1,  -10,  -27,  -37
2909059, 1710336141, "2024/3/13 13:22:21",  7,  -58,  1001,  0,  0,  -1,  -11,  -26,  -38
2909259, 1710336142, "2024/3/13 13:22:22",  9,  -52,  1000,  0,  0,  0,  -10,  -27,  -37
2909459, 1710336142, "2024/3/13 13:22:22",  4,  -55,  1002,  0,  0,  0,  -12,  -28,  -36
2909659, 1710336142, "2024/3/13 13:22:22",  3,  -68,  1001,  0,  0,  -1,  -11,  -26,  -36
2909859, 1710336142, "2024/3/13 13:22:22",  4,  -58,  1002,  0,  0,  -1,  -12,  -26,  -36
2910059, 1710336142, "2024/3/13 13:22:22",  3,  -61,  1004,  0,  0,  0,  -11,  -24,  -37
2910259, 1710336143, "2024/3/13 13:22:23",  2,  -60,  1003,  0,  0,  0,  -10,  -26,  -37
2910459, 1710336143, "2024/3/13 13:22:23",  4,  -57,  1000,  0,  -1,  -1,  -11,  -27,  -36
2910659, 1710336143, "2024/3/13 13:22:23",  2,  -53,  1001,  0,  0,  -1,  -9,  -25,  -37
2910859, 1710336143, "2024/3/13 13:22:23",  3,  -56,  1003,  0,  0,  -1,  -11,  -26,  -37
2911059, 1710336143, "2024/3/13 13:22:23",  6,  -58,  1002,  0,  0,  -1,  -10,  -27,  -36
2911259, 1710336144, "2024/3/13 13:22:24",  7,  -59,  1000,  0,  0,  -1,  -11,  -26,  -38
2911459, 1710336144, "2024/3/13 13:22:24",  4,  -56,  1002,  0,  -1,  -1,  -10,  -25,  -36
2911659, 1710336144, "2024/3/13 13:22:24",  5,  -58,  1002,  0,  0,  0,  -11,  -27,  -36
2911859, 1710336144, "2024/3/13 13:22:24",  2,  -60,  1004,  0,  0,  0,  -10,  -27,  -37
2912059, 1710336144, "2024/3/13 13:22:24",  7,  -55,  1002,  0,  -1,  0,  -10,  -26,  -35
2912259, 1710336145, "2024/3/13 13:22:25",  3,  -59,  1004,  0,  0,  -1,  -11,  -27,  -35
2912459, 1710336145, "2024/3/13 13:22:25",  7,  -57,  1003,  0,  0,  -1,  -10,  -27,  -36
2912659, 1710336145, "2024/3/13 13:22:25",  4,  -61,  1004,  0,  0,  -1,  -11,  -26,  -36
2912859, 1710336145, "2024/3/13 13:22:25",  7,  -53,  1003,  0,  0,  0,  -11,  -26,  -37
2913059, 1710336145, "2024/3/13 13:22:25",  2,  -58,  1004,  0,  0,  0,  -11,  -27,  -36
2913259, 1710336146, "2024/3/13 13:22:26",  8,  -54,  1002,  0,  0,  -1,  -11,  -28,  -35
2913459, 1710336146, "2024/3/13 13:22:26",  4,  -61,  1003,  0,  0,  0,  -10,  -26,  -37
2913659, 1710336146, "2024/3/13 13:22:26",  8,  -55,  1002,  0,  0,  -1,  -9,  -27,  -36
2913859, 1710336146, "2024/3/13 13:22:26",  8,  -58,  1001,  0,  0,  -1,  -10,  -27,  -35
2914059, 1710336146, "2024/3/13 13:22:26",  3,  -60,  1004,  0,  0,  -1,  -11,  -28,  -37
2914259, 1710336147, "2024/3/13 13:22:27",  11,  -54,  1004,  0,  0,  0,  -10,  -26,  -36
2914459, 1710336147, "2024/3/13 13:22:27",  5,  -57,  1003,  0,  0,  0,  -12,  -26,  -37
2914659, 1710336147, "2024/3/13 13:22:27",  3,  -57,  1000,  0,  0,  0,  -11,  -28,  -36
2914859, 1710336147, "2024/3/13 13:22:27",  4,  -55,  1004,  0,  0,  0,  -12,  -27,  -36
2915059, 1710336147, "2024/3/13 13:22:27",  5,  -59,  1003,  0,  0,  -1,  -9,  -27,  -36
2915259, 1710336148, "2024/3/13 13:22:28",  4,  -59,  1005,  0,  0,  -1,  -12,  -26,  -38
2915459, 1710336148, "2024/3/13 13:22:28",  4,  -62,  1001,  0,  0,  0,  -11,  -28,  -36
2915659, 1710336148, "2024/3/13 13:22:28",  0,  -62,  1002,  0,  0,  0,  -11,  -26,  -36
2915859, 1710336148, "2024/3/13 13:22:28",  4,  -58,  999,  0,  0,  -1,  -11,  -27,  -36
2916059, 1710336148, "2024/3/13 13:22:28",  5,  -60,  1005,  0,  0,  0,  -9,  -25,  -37
2916259, 1710336149, "2024/3/13 13:22:29",  9,  -57,  1005,  0,  0,  -1,  -11,  -27,  -36
2916459, 1710336149, "2024/3/13 13:22:29",  3,  -55,  1004,  0,  0,  -1,  -9,  -26,  -35
2916659, 1710336149, "2024/3/13 13:22:29",  5,  -61,  999,  0,  0,  -1,  -9,  -27,  -35
2916859, 1710336149, "2024/3/13 13:22:29",  1,  -54,  1003,  0,  0,  0,  -11,  -26,  -36
2917059, 1710336149, "2024/3/13 13:22:29",  4,  -54,  1004,  0,  0,  -1,  -11,  -26,  -36
2917259, 1710336150, "2024/3/13 13:22:30",  0,  -59,  1003,  0,  0,  -1,  -10,  -27,  -38
2917459, 1710336150, "2024/3/13 13:22:30",  9,  -60,  1004,  0,  0,  0,  -10,  -26,  -37
2917659, 1710336150, "2024/3/13 13:22:30",  7,  -63,  1004,  0,  0,  0,  -11,  -26,  -37
2917859, 1710336150, "2024/3/13 13:22:30",  8,  -58,  998,  0,  0,  0,  -11,  -26,  -36
2918059, 1710336150, "2024/3/13 13:22:30",  4,  -62,  1002,  0,  0,  0,  -11,  -26,  -36
2918259, 1710336151, "2024/3/13 13:22:31",  2,  -58,  1002,  0,  0,  -1,  -9,  -27,  -37
2918459, 1710336151, "2024/3/13 13:22:31",  4,  -59,  1005,  0,  0,  -1,  -9,  -25,  -35
2918659, 1710336151, "2024/3/13 13:22:31",  4,  -54,  1003,  0,  -1,  -1,  -11,  -27,  -36
2918859, 1710336151, "2024/3/13 13:22:31",  8,  -55,  1004,  0,  0,  0,  -11,  -27,  -37
2919059, 1710336151, "2024/3/13 13:22:31",  6,  -53,  1000,  0,  0,  -1,  -10,  -26,  -37
2919259, 1710336152, "2024/3/13 13:22:32",  6,  -58,  1005,  0,  0,  0,  -11,  -26,  -37
2919459, 1710336152, "2024/3/13 13:22:32",  2,  -63,  1001,  0,  0,  -1,  -11,  -26,  -36
2919659, 1710336152, "2024/3/13 13:22:32",  3,  -58,  1004,  0,  0,  0,  -11,  -27,  -37
2919859, 1710336152, "2024/3/13 13:22:32",  10,  -59,  1003,  0,  0,  -1,  -10,  -27,  -37
2920059, 1710336152, "2024/3/13 13:22:32",  4,  -55,  1003,  0,  0,  0,  -10,  -26,  -36
2920259, 1710336153, "2024/3/13 13:22:33",  6,  -59,  1001,  0,  -1,  -1,  -11,  -27,  -37
2920459, 1710336153, "2024/3/13 13:22:33",  3,  -57,  1002,  0,  0,  -1,  -11,  -24,  -36
2920659, 1710336153, "2024/3/13 13:22:33",  3,  -61,  1003,  0,  0,  -1,  -11,  -25,  -36
2920859, 1710336153, "2024/3/13 13:22:33",  3,  -56,  1003,  0,  0,  -1,  -11,  -26,  -36
2921059, 1710336153, "2024/3/13 13:22:33",  8,  -57,  1003,  0,  0,  -1,  -12,  -27,  -36
2921259, 1710336154, "2024/3/13 13:22:34",  3,  -55,  1001,  0,  0,  0,  -11,  -28,  -36
2921459, 1710336154, "2024/3/13 13:22:34",  5,  -60,  1003,  0,  0,  0,  -10,  -27,  -36
2921659, 1710336154, "2024/3/13 13:22:34",  4,  -57,  1005,  0,  0,  0,  -11,  -26,  -37
2921859, 1710336154, "2024/3/13 13:22:34",  4,  -56,  999,  0,  0,  0,  -11,  -26,  -37
2922059, 1710336154, "2024/3/13 13:22:34",  2,  -54,  1004,  0,  0,  -1,  -11,  -26,  -38
2922259, 1710336155, "2024/3/13 13:22:35",  4,  -59,  1002,  0,  0,  0,  -10,  -28,  -36
2922459, 1710336155, "2024/3/13 13:22:35",  4,  -57,  1005,  0,  0,  0,  -10,  -28,  -35
2922659, 1710336155, "2024/3/13 13:22:35",  3,  -51,  1002,  0,  0,  -1,  -10,  -27,  -36
2922859, 1710336155, "2024/3/13 13:22:35",  2,  -60,  1002,  0,  0,  -1,  -10,  -25,  -37
2923059, 1710336155, "2024/3/13 13:22:35",  2,  -52,  1006,  0,  0,  -1,  -11,  -25,  -37
2923259, 1710336156, "2024/3/13 13:22:36",  6,  -61,  1003,  0,  0,  -1,  -13,  -27,  -36
2923459, 1710336156, "2024/3/13 13:22:36",  5,  -56,  1002,  0,  0,  0,  -11,  -27,  -36
2923659, 1710336156, "2024/3/13 13:22:36",  0,  -61,  1003,  0,  0,  -1,  -11,  -28,  -36
2923859, 1710336156, "2024/3/13 13:22:36",  4,  -57,  1007,  0,  0,  0,  -11,  -27,  -37
2924059, 1710336156, "2024/3/13 13:22:36",  0,  -61,  1001,  0,  0,  0,  -10,  -26,  -35
2924259, 1710336157, "2024/3/13 13:22:37",  5,  -63,  1008,  0,  0,  -1,  -10,  -29,  -36
2924459, 1710336157, "2024/3/13 13:22:37",  10,  -57,  1004,  0,  0,  0,  -10,  -27,  -38
2924659, 1710336157, "2024/3/13 13:22:37",  7,  -60,  1004,  0,  0,  -1,  -11,  -26,  -38
2924859, 1710336157, "2024/3/13 13:22:37",  1,  -56,  999,  0,  0,  -1,  -10,  -27,  -37
2925059, 1710336157, "2024/3/13 13:22:37",  7,  -59,  1002,  0,  0,  -1,  -10,  -26,  -37
2925259, 1710336158, "2024/3/13 13:22:38",  5,  -59,  1006,  0,  0,  0,  -9,  -26,  -37
2925459, 1710336158, "2024/3/13 13:22:38",  9,  -61,  1004,  0,  -1,  -1,  -10,  -28,  -37
2925659, 1710336158, "2024/3/13 13:22:38",  6,  -57,  1003,  0,  0,  -1,  -11,  -26,  -36
2925859, 1710336158, "2024/3/13 13:22:38",  4,  -54,  1004,  0,  0,  -1,  -11,  -27,  -36
2926059, 1710336158, "2024/3/13 13:22:38",  2,  -54,  1001,  0,  0,  -1,  -12,  -27,  -37
2926259, 1710336159, "2024/3/13 13:22:39",  6,  -61,  1002,  0,  0,  -1,  -11,  -26,  -36
2926459, 1710336159, "2024/3/13 13:22:39",  5,  -59,  1000,  0,  0,  -1,  -11,  -25,  -37
2926659, 1710336159, "2024/3/13 13:22:39",  3,  -61,  1001,  0,  0,  -1,  -10,  -27,  -37
2926859, 1710336159, "2024/3/13 13:22:39",  12,  -57,  1002,  0,  0,  0,  -10,  -25,  -36
2927059, 1710336159, "2024/3/13 13:22:39",  6,  -61,  1003,  0,  0,  -1,  -11,  -28,  -37
2927259, 1710336160, "2024/3/13 13:22:40",  7,  -54,  1004,  0,  -1,  -1,  -10,  -27,  -36
2927459, 1710336160, "2024/3/13 13:22:40",  4,  -58,  1000,  0,  0,  -1,  -11,  -26,  -37
2927659, 1710336160, "2024/3/13 13:22:40",  0,  -57,  1002,  0,  0,  -1,  -11,  -24,  -36
2927859, 1710336160, "2024/3/13 13:22:40",  5,  -61,  1000,  0,  0,  -1,  -11,  -26,  -36
2928059, 1710336160, "2024/3/13 13:22:40",  4,  -57,  1003,  0,  0,  0,  -11,  -26,  -37
2928259, 1710336161, "2024/3/13 13:22:41",  4,  -58,  1006,  0,  0,  -1,  -10,  -26,  -37
2928459, 1710336161, "2024/3/13 13:22:41",  4,  -61,  1003,  0,  0,  -1,  -10,  -24,  -36
2928659, 1710336161, "2024/3/13 13:22:41",  8,  -57,  1007,  0,  0,  -1,  -11,  -26,  -37
2928859, 1710336161, "2024/3/13 13:22:41",  5,  -60,  1003,  0,  0,  0,  -10,  -24,  -35
2929059, 1710336161, "2024/3/13 13:22:41",  6,  -59,  1005,  0,  0,  0,  -11,  -26,  -36
2929259, 1710336162, "2024/3/13 13:22:42",  9,  -59,  999,  0,  0,  -1,  -11,  -26,  -36
2929459, 1710336162, "2024/3/13 13:22:42",  2,  -58,  1006,  0,  0,  -1,  -10,  -25,  -37
2929659, 1710336162, "2024/3/13 13:22:42",  4,  -53,  1003,  0,  -1,  0,  -12,  -27,  -36
2929859, 1710336162, "2024/3/13 13:22:42",  9,  -54,  1004,  0,  0,  -1,  -9,  -27,  -37
2930059, 1710336162, "2024/3/13 13:22:42",  5,  -60,  1001,  0,  0,  -1,  -12,  -26,  -38
2930259, 1710336163, "2024/3/13 13:22:43",  8,  -57,  1004,  0,  0,  -1,  -11,  -25,  -37
2930459, 1710336163, "2024/3/13 13:22:43",  9,  -59,  1000,  0,  -1,  0,  -11,  -27,  -37
2930659, 1710336163, "2024/3/13 13:22:43",  6,  -56,  1003,  0,  0,  0,  -10,  -26,  -37
2930859, 1710336163, "2024/3/13 13:22:43",  1,  -56,  1000,  0,  0,  0,  -11,  -29,  -36
2931059, 1710336163, "2024/3/13 13:22:43",  1,  -61,  1001,  0,  0,  0,  -11,  -27,  -36
2931259, 1710336164, "2024/3/13 13:22:44",  4,  -57,  1003,  0,  0,  -1,  -11,  -27,  -37
2931459, 1710336164, "2024/3/13 13:22:44",  5,  -57,  1001,  0,  0,  0,  -11,  -26,  -37
2931659, 1710336164, "2024/3/13 13:22:44",  13,  -56,  1002,  0,  0,  -1,  -11,  -28,  -36
2931859, 1710336164, "2024/3/13 13:22:44",  6,  -59,  1004,  0,  0,  -1,  -10,  -26,  -37
2932059, 1710336164, "2024/3/13 13:22:44",  6,  -61,  1006,  0,  0,  0,  -11,  -27,  -37
2932259, 1710336165, "2024/3/13 13:22:45",  8,  -62,  1000,  0,  0,  -1,  -12,  -27,  -36
2932459, 1710336165, "2024/3/13 13:22:45",  4,  -60,  1002,  0,  0,  -1,  -11,  -26,  -37
2932659, 1710336165, "2024/3/13 13:22:45",  6,  -58,  1002,  0,  0,  0,  -9,  -26,  -36
2932859, 1710336165, "2024/3/13 13:22:45",  5,  -50,  1002,  0,  0,  0,  -12,  -27,  -36
2933059, 1710336165, "2024/3/13 13:22:45",  4,  -59,  1000,  0,  -1,  -1,  -11,  -26,  -37
2933259, 1710336166, "2024/3/13 13:22:46",  3,  -57,  1004,  0,  0,  0,  -9,  -27,  -36
2933459, 1710336166, "2024/3/13 13:22:46",  5,  -68,  993,  0,  -1,  -1,  -11,  -27,  -35
2933659, 1710336166, "2024/3/13 13:22:46",  6,  -57,  1007,  0,  0,  0,  -11,  -27,  -37
2933859, 1710336166, "2024/3/13 13:22:46",  15,  -61,  1007,  0,  0,  -1,  -10,  -26,  -36
2934059, 1710336166, "2024/3/13 13:22:46",  8,  -61,  1007,  0,  0,  0,  -11,  -27,  -36
2934259, 1710336167, "2024/3/13 13:22:47",  -3,  -62,  1001,  0,  0,  -1,  -10,  -25,  -36
2934459, 1710336167, "2024/3/13 13:22:47",  3,  -59,  1002,  0,  0,  -1,  -9,  -27,  -34
2934659, 1710336167, "2024/3/13 13:22:47",  6,  -53,  1008,  0,  0,  -1,  -11,  -26,  -36
2934859, 1710336167, "2024/3/13 13:22:47",  1,  -59,  1000,  0,  0,  0,  -12,  -27,  -35
2935059, 1710336167, "2024/3/13 13:22:47",  6,  -46,  1002,  0,  -1,  -1,  -10,  -27,  -36
2935259, 1710336168, "2024/3/13 13:22:48",  11,  -47,  1003,  0,  0,  -1,  -11,  -27,  -37
2935459, 1710336168, "2024/3/13 13:22:48",  6,  -55,  1004,  0,  0,  -1,  -10,  -25,  -36
2935659, 1710336168, "2024/3/13 13:22:48",  13,  -70,  1002,  0,  0,  -1,  -11,  -26,  -36
2935859, 1710336168, "2024/3/13 13:22:48",  7,  -58,  1003,  0,  0,  -1,  -9,  -26,  -35
2936059, 1710336168, "2024/3/13 13:22:48",  5,  -57,  1003,  0,  0,  -1,  -10,  -28,  -37
2936259, 1710336169, "2024/3/13 13:22:49",  6,  -60,  1000,  0,  0,  -1,  -10,  -27,  -36
2936459, 1710336169, "2024/3/13 13:22:49",  6,  -62,  1010,  0,  0,  -1,  -11,  -25,  -36
2936659, 1710336169, "2024/3/13 13:22:49",  14,  -62,  1004,  0,  0,  0,  -11,  -27,  -36
2936859, 1710336169, "2024/3/13 13:22:49",  8,  -64,  1003,  0,  0,  -1,  -11,  -25,  -36
2937059, 1710336169, "2024/3/13 13:22:49",  4,  -59,  1000,  0,  0,  0,  -11,  -28,  -35
2937259, 1710336170, "2024/3/13 13:22:50",  5,  -57,  1003,  0,  0,  -1,  -9,  -26,  -36
2937459, 1710336170, "2024/3/13 13:22:50",  4,  -49,  1002,  0,  0,  0,  -11,  -26,  -36
2937659, 1710336170, "2024/3/13 13:22:50",  2,  -54,  1002,  0,  0,  -1,  -11,  -27,  -37
2937859, 1710336170, "2024/3/13 13:22:50",  2,  -59,  1009,  0,  0,  -1,  -12,  -26,  -37
2938059, 1710336170, "2024/3/13 13:22:50",  0,  -55,  1004,  0,  0,  -1,  -10,  -25,  -37
2938259, 1710336171, "2024/3/13 13:22:51",  4,  -59,  1001,  0,  0,  -1,  -11,  -26,  -37
2938459, 1710336171, "2024/3/13 13:22:51",  7,  -61,  1002,  0,  0,  -1,  -11,  -27,  -36
2938659, 1710336171, "2024/3/13 13:22:51",  1,  -64,  1001,  0,  0,  0,  -11,  -26,  -36
2938859, 1710336171, "2024/3/13 13:22:51",  3,  -56,  1009,  0,  0,  0,  -11,  -27,  -36
2939059, 1710336171, "2024/3/13 13:22:51",  7,  -54,  1004,  0,  0,  0,  -10,  -28,  -37
2939259, 1710336172, "2024/3/13 13:22:52",  11,  -51,  1003,  0,  0,  -1,  -11,  -27,  -35
2939459, 1710336172, "2024/3/13 13:22:52",  13,  -51,  1004,  0,  0,  -1,  -10,  -27,  -34
2939659, 1710336172, "2024/3/13 13:22:52",  20,  -58,  1004,  0,  0,  0,  -10,  -25,  -35
2939859, 1710336172, "2024/3/13 13:22:52",  13,  -62,  1001,  0,  0,  -1,  -9,  -27,  -35
2940059, 1710336172, "2024/3/13 13:22:52",  6,  -55,  1003,  0,  0,  0,  -10,  -27,  -37
2940259, 1710336173, "2024/3/13 13:22:53",  6,  -60,  1000,  0,  -1,  -1,  -11,  -26,  -36
2940459, 1710336173, "2024/3/13 13:22:53",  -6,  -64,  1001,  0,  0,  -1,  -10,  -25,  -36
2940659, 1710336173, "2024/3/13 13:22:53",  0,  -64,  1001,  0,  0,  0,  -10,  -26,  -37
2940859, 1710336173, "2024/3/13 13:22:53",  6,  -70,  1004,  0,  0,  -1,  -10,  -25,  -37
2941059, 1710336173, "2024/3/13 13:22:53",  6,  -59,  1003,  0,  0,  0,  -11,  -28,  -37
2941259, 1710336174, "2024/3/13 13:22:54",  1,  -58,  1001,  0,  0,  0,  -11,  -25,  -36
2941459, 1710336174, "2024/3/13 13:22:54",  6,  -59,  1004,  0,  0,  -1,  -11,  -27,  -37
2941659, 1710336174, "2024/3/13 13:22:54",  -4,  -67,  998,  0,  0,  -1,  -11,  -25,  -36
2941859, 1710336174, "2024/3/13 13:22:54",  9,  -61,  1003,  0,  0,  0,  -11,  -27,  -34
2942059, 1710336174, "2024/3/13 13:22:54",  9,  -57,  1001,  0,  0,  -1,  -10,  -26,  -37
2942259, 1710336175, "2024/3/13 13:22:55",  9,  -51,  1003,  0,  0,  0,  -10,  -25,  -36
2942459, 1710336175, "2024/3/13 13:22:55",  3,  -46,  1001,  0,  0,  -1,  -10,  -27,  -37
2942659, 1710336175, "2024/3/13 13:22:55",  2,  -54,  997,  0,  0,  -1,  -12,  -27,  -37
2942859, 1710336175, "2024/3/13 13:22:55",  2,  -55,  1012,  0,  -1,  -1,  -12,  -27,  -36
2943059, 1710336175, "2024/3/13 13:22:55",  -1,  -64,  1003,  0,  0,  -1,  -10,  -27,  -37
2943259, 1710336176, "2024/3/13 13:22:56",  3,  -64,  1009,  0,  0,  -1,  -10,  -26,  -37
2943459, 1710336176, "2024/3/13 13:22:56",  4,  -60,  1004,  0,  0,  0,  -12,  -25,  -37
2943659, 1710336176, "2024/3/13 13:22:56",  7,  -58,  1001,  0,  0,  -1,  -11,  -28,  -37
2943859, 1710336176, "2024/3/13 13:22:56",  9,  -60,  1003,  0,  -1,  -1,  -11,  -26,  -36
2944059, 1710336176, "2024/3/13 13:22:56",  8,  -64,  1003,  0,  0,  -1,  -10,  -27,  -36
2944259, 1710336177, "2024/3/13 13:22:57",  5,  -61,  1003,  0,  0,  0,  -10,  -27,  -36
2944459, 1710336177, "2024/3/13 13:22:57",  9,  -64,  1001,  0,  0,  -1,  -12,  -27,  -36
2944659, 1710336177, "2024/3/13 13:22:57",  6,  -57,  999,  0,  0,  -1,  -10,  -26,  -37
2944859, 1710336177, "2024/3/13 13:22:57",  3,  -62,  1002,  0,  0,  0,  -12,  -26,  -37
2945059, 1710336177, "2024/3/13 13:22:57",  5,  -60,  1003,  0,  0,  0,  -11,  -25,  -36
2945259, 1710336178, "2024/3/13 13:22:58",  7,  -54,  1007,  0,  -1,  0,  -10,  -26,  -37
2945459, 1710336178, "2024/3/13 13:22:58",  6,  -63,  1002,  0,  0,  -1,  -11,  -28,  -37
2945659, 1710336178, "2024/3/13 13:22:58",  -1,  -56,  1007,  0,  0,  0,  -10,  -25,  -37
2945859, 1710336178, "2024/3/13 13:22:58",  8,  -57,  1006,  0,  0,  -1,  -11,  -27,  -35
2946059, 1710336178, "2024/3/13 13:22:58",  2,  -56,  1001,  0,  0,  0,  -9,  -27,  -36
2946259, 1710336179, "2024/3/13 13:22:59",  7,  -58,  1000,  0,  0,  -1,  -11,  -28,  -36
2946459, 1710336179, "2024/3/13 13:22:59",  7,  -63,  1002,  0,  0,  -1,  -11,  -27,  -36
2946659, 1710336179, "2024/3/13 13:22:59",  8,  -60,  1006,  0,  0,  0,  -11,  -26,  -37
2946859, 1710336179, "2024/3/13 13:22:59",  10,  -57,  1004,  0,  0,  -1,  -8,  -26,  -37
2947059, 1710336179, "2024/3/13 13:22:59",  5,  -57,  1003,  0,  0,  -1,  -11,  -29,  -37
2947259, 1710336180, "2024/3/13 13:23:0",  7,  -64,  1003,  0,  0,  -1,  -11,  -26,  -36
2947459, 1710336180, "2024/3/13 13:23:0",  4,  -55,  1004,  0,  0,  -1,  -11,  -26,  -37
2947659, 1710336180, "2024/3/13 13:23:0",  9,  -55,  986,  0,  0,  -1,  -12,  -27,  -36
2947859, 1710336180, "2024/3/13 13:23:0",  11,  -64,  1002,  1,  0,  0,  -11,  -27,  -36
2948059, 1710336180, "2024/3/13 13:23:0",  9,  -56,  1004,  0,  0,  -1,  -10,  -25,  -36
2948259, 1710336181, "2024/3/13 13:23:1",  14,  -61,  1001,  0,  0,  -1,  -9,  -25,  -36
2948459, 1710336181, "2024/3/13 13:23:1",  9,  -57,  1003,  0,  0,  -1,  -11,  -26,  -37
2948659, 1710336181, "2024/3/13 13:23:1",  6,  -59,  1003,  0,  0,  -1,  -9,  -27,  -37
2948859, 1710336181, "2024/3/13 13:23:1",  3,  -56,  1003,  0,  0,  -1,  -11,  -25,  -37
2949059, 1710336181, "2024/3/13 13:23:1",  7,  -62,  1003,  0,  0,  0,  -8,  -27,  -35
2949259, 1710336182, "2024/3/13 13:23:2",  6,  -57,  1002,  0,  0,  -1,  -10,  -26,  -36
2949459, 1710336182, "2024/3/13 13:23:2",  4,  -59,  999,  0,  0,  -1,  -9,  -27,  -37
2949659, 1710336182, "2024/3/13 13:23:2",  2,  -69,  1007,  0,  0,  -1,  -11,  -27,  -37
2949859, 1710336182, "2024/3/13 13:23:2",  13,  -62,  1002,  0,  0,  0,  -12,  -27,  -36
2950059, 1710336182, "2024/3/13 13:23:2",  4,  -61,  1004,  0,  0,  0,  -11,  -27,  -36
2950259, 1710336183, "2024/3/13 13:23:3",  3,  -51,  1000,  0,  0,  0,  -11,  -27,  -36
2950459, 1710336183, "2024/3/13 13:23:3",  5,  -55,  995,  0,  0,  0,  -11,  -26,  -36
2950659, 1710336183, "2024/3/13 13:23:3",  10,  -56,  1002,  0,  0,  -1,  -11,  -26,  -35
2950859, 1710336183, "2024/3/13 13:23:3",  6,  -57,  1007,  0,  0,  -1,  -11,  -25,  -37
2951059, 1710336183, "2024/3/13 13:23:3",  3,  -57,  1007,  0,  0,  -1,  -10,  -25,  -36
2951259, 1710336184, "2024/3/13 13:23:4",  4,  -56,  1001,  0,  0,  0,  -11,  -27,  -38
2951459, 1710336184, "2024/3/13 13:23:4",  13,  -58,  1005,  0,  -1,  -1,  -11,  -26,  -35
2951659, 1710336184, "2024/3/13 13:23:4",  21,  -49,  1016,  0,  0,  -1,  -11,  -27,  -36
2951859, 1710336184, "2024/3/13 13:23:4",  5,  -53,  1001,  0,  -1,  0,  -11,  -26,  -36
2952059, 1710336184, "2024/3/13 13:23:4",  7,  -61,  1003,  0,  0,  -1,  -11,  -27,  -36
2952259, 1710336185, "2024/3/13 13:23:5",  5,  -57,  1002,  0,  -1,  -1,  -10,  -28,  -37
2952459, 1710336185, "2024/3/13 13:23:5",  3,  -55,  1005,  0,  0,  -1,  -11,  -27,  -37
2952659, 1710336185, "2024/3/13 13:23:5",  -3,  -55,  1016,  0,  0,  -1,  -9,  -27,  -35
2952859, 1710336185, "2024/3/13 13:23:5",  -1,  -59,  1007,  0,  0,  0,  -10,  -27,  -37
2953059, 1710336185, "2024/3/13 13:23:5",  37,  -43,  1060,  0,  0,  0,  -11,  -28,  -36
2953259, 1710336186, "2024/3/13 13:23:6",  0,  -58,  996,  0,  0,  0,  -11,  -27,  -35
2953459, 1710336186, "2024/3/13 13:23:6",  1,  -59,  1000,  0,  0,  0,  -10,  -26,  -37
2953659, 1710336186, "2024/3/13 13:23:6",  4,  -62,  1003,  0,  0,  -1,  -10,  -27,  -36
2953859, 1710336186, "2024/3/13 13:23:6",  5,  -54,  1002,  0,  0,  -1,  -10,  -27,  -37
2954059, 1710336186, "2024/3/13 13:23:6",  6,  -53,  1000,  0,  0,  -1,  -9,  -27,  -38
2954259, 1710336187, "2024/3/13 13:23:7",  0,  -49,  1003,  0,  0,  -1,  -11,  -28,  -36
2954459, 1710336187, "2024/3/13 13:23:7",  6,  -65,  1010,  0,  0,  -1,  -11,  -27,  -37
2954659, 1710336187, "2024/3/13 13:23:7",  4,  -60,  1001,  0,  0,  -1,  -10,  -26,  -36
2954859, 1710336187, "2024/3/13 13:23:7",  8,  -59,  1002,  0,  0,  -1,  -10,  -28,  -34
2955059, 1710336187, "2024/3/13 13:23:7",  9,  -58,  1002,  0,  -1,  -1,  -11,  -26,  -35
2955259, 1710336188, "2024/3/13 13:23:8",  2,  -63,  1005,  0,  0,  -1,  -10,  -27,  -36
2955459, 1710336188, "2024/3/13 13:23:8",  5,  -58,  1004,  0,  0,  -1,  -10,  -27,  -38
2955659, 1710336188, "2024/3/13 13:23:8",  6,  -51,  1004,  0,  0,  -1,  -11,  -26,  -36
2955859, 1710336188, "2024/3/13 13:23:8",  6,  -56,  1006,  0,  -1,  -1,  -9,  -26,  -37
