millis,stamp,datetime,accX,accY,accZ,gyroX,gyroY,gyroZ,compX,compY,compZ
369981, 1710333601, "2024/3/13 12:40:1",  4,  -60,  1003,  0,  0,  -1,  -13,  -25,  -36
370181, 1710333601, "2024/3/13 12:40:1",  2,  -54,  1003,  0,  0,  -1,  -12,  -28,  -36
370381, 1710333601, "2024/3/13 12:40:1",  4,  -56,  1002,  0,  0,  -1,  -10,  -26,  -36
370581, 1710333601, "2024/3/13 12:40:1",  5,  -61,  1007,  0,  0,  -1,  -13,  -26,  -36
370781, 1710333602, "2024/3/13 12:40:2",  7,  -60,  1004,  0,  0,  -1,  -10,  -25,  -36
370981, 1710333602, "2024/3/13 12:40:2",  4,  -54,  1004,  0,  0,  0,  -11,  -27,  -36
371181, 1710333602, "2024/3/13 12:40:2",  4,  -61,  1004,  0,  0,  -1,  -10,  -26,  -35
371381, 1710333602, "2024/3/13 12:40:2",  5,  -62,  1003,  0,  -1,  -1,  -12,  -27,  -37
371581, 1710333602, "2024/3/13 12:40:2",  0,  -61,  1006,  0,  0,  -1,  -9,  -27,  -36
371781, 1710333603, "2024/3/13 12:40:3",  2,  -62,  1006,  0,  0,  -1,  -12,  -27,  -37
371981, 1710333603, "2024/3/13 12:40:3",  2,  -63,  1007,  0,  0,  -1,  -11,  -26,  -36
372182, 1710333603, "2024/3/13 12:40:3",  6,  -62,  1004,  0,  0,  0,  -12,  -26,  -36
372382, 1710333603, "2024/3/13 12:40:3",  0,  -53,  1003,  0,  -1,  0,  -13,  -26,  -36
372582, 1710333603, "2024/3/13 12:40:3",  3,  -66,  1023,  1,  0,  -1,  -11,  -26,  -37
372782, 1710333604, "2024/3/13 12:40:4",  13,  -58,  1002,  0,  0,  -1,  -11,  -26,  -36
372982, 1710333604, "2024/3/13 12:40:4",  8,  -60,  1002,  0,  0,  0,  -12,  -26,  -36
373182, 1710333604, "2024/3/13 12:40:4",  10,  -52,  1003,  0,  0,  0,  -11,  -25,  -37
373382, 1710333604, "2024/3/13 12:40:4",  7,  -58,  1004,  0,  0,  -1,  -11,  -26,  -36
373582, 1710333604, "2024/3/13 12:40:4",  4,  -58,  1005,  0,  0,  -1,  -11,  -27,  -37
373782, 1710333605, "2024/3/13 12:40:5",  3,  -63,  1006,  0,  0,  0,  -12,  -25,  -36
373982, 1710333605, "2024/3/13 12:40:5",  3,  -58,  1002,  0,  0,  -1,  -12,  -27,  -36
374182, 1710333605, "2024/3/13 12:40:5",  2,  -53,  1002,  0,  -1,  0,  -11,  -26,  -35
374382, 1710333605, "2024/3/13 12:40:5",  3,  -58,  1001,  0,  -1,  -1,  -12,  -25,  -36
374582, 1710333605, "2024/3/13 12:40:5",  0,  -54,  1003,  0,  0,  0,  -10,  -27,  -36
374782, 1710333606, "2024/3/13 12:40:6",  3,  -58,  1003,  0,  0,  0,  -12,  -27,  -37
374982, 1710333606, "2024/3/13 12:40:6",  3,  -51,  1002,  0,  0,  0,  -10,  -25,  -36
375182, 1710333606, "2024/3/13 12:40:6",  6,  -59,  1004,  0,  -1,  -1,  -11,  -26,  -36
375382, 1710333606, "2024/3/13 12:40:6",  6,  -52,  1005,  0,  -1,  -1,  -11,  -27,  -36
375582, 1710333606, "2024/3/13 12:40:6",  1,  -63,  1005,  0,  0,  -1,  -11,  -27,  -36
375782, 1710333607, "2024/3/13 12:40:7",  5,  -57,  1005,  0,  0,  0,  -12,  -28,  -37
375982, 1710333607, "2024/3/13 12:40:7",  5,  -61,  1004,  0,  0,  -1,  -13,  -25,  -37
376182, 1710333607, "2024/3/13 12:40:7",  2,  -60,  1002,  0,  0,  0,  -12,  -26,  -36
376382, 1710333607, "2024/3/13 12:40:7",  4,  -55,  1004,  0,  0,  0,  -12,  -25,  -36
376582, 1710333607, "2024/3/13 12:40:7",  0,  -61,  1005,  0,  0,  -1,  -12,  -26,  -36
376782, 1710333608, "2024/3/13 12:40:8",  5,  -55,  1002,  0,  0,  0,  -9,  -26,  -35
376982, 1710333608, "2024/3/13 12:40:8",  5,  -58,  1002,  0,  0,  0,  -12,  -26,  -35
377182, 1710333608, "2024/3/13 12:40:8",  6,  -60,  1004,  0,  0,  -1,  -12,  -25,  -37
377382, 1710333608, "2024/3/13 12:40:8",  0,  -55,  1004,  0,  0,  0,  -10,  -26,  -35
377582, 1710333608, "2024/3/13 12:40:8",  5,  -61,  1001,  0,  0,  0,  -13,  -27,  -36
377782, 1710333609, "2024/3/13 12:40:9",  2,  -62,  1006,  0,  0,  0,  -12,  -25,  -38
377982, 1710333609, "2024/3/13 12:40:9",  5,  -61,  1004,  0,  0,  0,  -12,  -26,  -35
378182, 1710333609, "2024/3/13 12:40:9",  -1,  -60,  1002,  0,  0,  -1,  -11,  -25,  -36
378382, 1710333609, "2024/3/13 12:40:9",  6,  -55,  1002,  0,  0,  -1,  -11,  -26,  -36
378582, 1710333609, "2024/3/13 12:40:9",  5,  -57,  1005,  0,  0,  0,  -12,  -27,  -37
378782, 1710333610, "2024/3/13 12:40:10",  6,  -57,  1002,  0,  0,  0,  -13,  -25,  -37
378982, 1710333610, "2024/3/13 12:40:10",  9,  -53,  1003,  0,  0,  -1,  -11,  -26,  -38
379182, 1710333610, "2024/3/13 12:40:10",  5,  -57,  1005,  0,  0,  -1,  -11,  -27,  -36
379382, 1710333610, "2024/3/13 12:40:10",  5,  -59,  1004,  0,  -1,  -1,  -12,  -25,  -36
379582, 1710333610, "2024/3/13 12:40:10",  3,  -56,  1003,  0,  0,  0,  -12,  -26,  -36
379782, 1710333611, "2024/3/13 12:40:11",  5,  -58,  1001,  0,  0,  0,  -11,  -27,  -36
379982, 1710333611, "2024/3/13 12:40:11",  4,  -52,  1000,  0,  0,  0,  -11,  -27,  -36
380182, 1710333611, "2024/3/13 12:40:11",  3,  -63,  1009,  0,  0,  0,  -12,  -26,  -36
380382, 1710333611, "2024/3/13 12:40:11",  6,  -58,  1005,  0,  -1,  0,  -12,  -25,  -36
380582, 1710333611, "2024/3/13 12:40:11",  0,  -55,  1005,  0,  0,  0,  -10,  -27,  -37
380782, 1710333612, "2024/3/13 12:40:12",  6,  -56,  1007,  0,  0,  0,  -11,  -25,  -36
380982, 1710333612, "2024/3/13 12:40:12",  4,  -58,  1002,  0,  0,  -1,  -11,  -25,  -36
381182, 1710333612, "2024/3/13 12:40:12",  7,  -56,  1004,  0,  0,  -1,  -10,  -25,  -37
381382, 1710333612, "2024/3/13 12:40:12",  10,  -55,  1004,  0,  0,  -1,  -9,  -27,  -36
381582, 1710333612, "2024/3/13 12:40:12",  4,  -56,  1001,  0,  0,  -1,  -11,  -26,  -37
381782, 1710333613, "2024/3/13 12:40:13",  6,  -58,  1004,  0,  0,  -1,  -12,  -25,  -36
381982, 1710333613, "2024/3/13 12:40:13",  4,  -55,  1002,  0,  0,  -1,  -12,  -27,  -35
382182, 1710333613, "2024/3/13 12:40:13",  3,  -62,  1003,  0,  0,  -1,  -12,  -27,  -37
382382, 1710333613, "2024/3/13 12:40:13",  3,  -62,  1006,  0,  0,  -1,  -11,  -26,  -35
382582, 1710333613, "2024/3/13 12:40:13",  9,  -57,  1004,  0,  0,  -1,  -11,  -25,  -38
382782, 1710333614, "2024/3/13 12:40:14",  7,  -53,  1005,  0,  0,  0,  -11,  -26,  -36
382982, 1710333614, "2024/3/13 12:40:14",  5,  -55,  1003,  0,  0,  0,  -14,  -26,  -38
383182, 1710333614, "2024/3/13 12:40:14",  6,  -61,  1001,  0,  0,  0,  -12,  -24,  -37
383382, 1710333614, "2024/3/13 12:40:14",  7,  -56,  1003,  0,  0,  -1,  -11,  -27,  -36
383582, 1710333614, "2024/3/13 12:40:14",  9,  -54,  1003,  0,  0,  -1,  -12,  -26,  -38
383782, 1710333615, "2024/3/13 12:40:15",  7,  -60,  1006,  0,  0,  -1,  -13,  -27,  -36
383982, 1710333615, "2024/3/13 12:40:15",  5,  -55,  1005,  0,  0,  -1,  -9,  -27,  -36
384182, 1710333615, "2024/3/13 12:40:15",  1,  -50,  1007,  0,  0,  0,  -11,  -25,  -38
384382, 1710333615, "2024/3/13 12:40:15",  7,  -56,  1002,  0,  0,  -1,  -12,  -24,  -37
384582, 1710333615, "2024/3/13 12:40:15",  7,  -60,  1003,  0,  0,  0,  -11,  -26,  -36
384782, 1710333616, "2024/3/13 12:40:16",  7,  -60,  1002,  0,  0,  -1,  -11,  -25,  -36
384982, 1710333616, "2024/3/13 12:40:16",  10,  -52,  1004,  0,  0,  -1,  -11,  -25,  -37
385182, 1710333616, "2024/3/13 12:40:16",  2,  -55,  1004,  0,  0,  0,  -11,  -27,  -36
385382, 1710333616, "2024/3/13 12:40:16",  6,  -53,  1003,  0,  0,  -1,  -12,  -26,  -37
385582, 1710333616, "2024/3/13 12:40:16",  9,  -55,  1005,  0,  0,  -1,  -12,  -26,  -36
385782, 1710333617, "2024/3/13 12:40:17",  3,  -58,  1004,  0,  -1,  0,  -11,  -27,  -38
385982, 1710333617, "2024/3/13 12:40:17",  2,  -55,  1006,  0,  0,  -1,  -12,  -26,  -38
386182, 1710333617, "2024/3/13 12:40:17",  7,  -53,  1011,  0,  0,  0,  -11,  -27,  -36
386382, 1710333617, "2024/3/13 12:40:17",  7,  -61,  1008,  0,  0,  0,  -12,  -25,  -36
386582, 1710333617, "2024/3/13 12:40:17",  1,  -56,  1006,  0,  0,  0,  -13,  -25,  -37
386782, 1710333618, "2024/3/13 12:40:18",  7,  -49,  1002,  0,  0,  -1,  -10,  -26,  -36
386982, 1710333618, "2024/3/13 12:40:18",  4,  -59,  1003,  0,  0,  -1,  -12,  -25,  -36
387182, 1710333618, "2024/3/13 12:40:18",  7,  -61,  1000,  0,  0,  0,  -11,  -25,  -37
387382, 1710333618, "2024/3/13 12:40:18",  2,  -55,  1005,  0,  0,  0,  -13,  -27,  -36
387582, 1710333618, "2024/3/13 12:40:18",  0,  -63,  1007,  0,  -1,  -1,  -12,  -26,  -35
387782, 1710333619, "2024/3/13 12:40:19",  4,  -53,  1008,  0,  0,  0,  -11,  -26,  -36
387982, 1710333619, "2024/3/13 12:40:19",  2,  -54,  1003,  0,  0,  0,  -12,  -24,  -36
388182, 1710333619, "2024/3/13 12:40:19",  7,  -67,  1006,  0,  0,  -1,  -12,  -24,  -37
388382, 1710333619, "2024/3/13 12:40:19",  5,  -54,  1002,  0,  0,  -1,  -11,  -27,  -36
388582, 1710333619, "2024/3/13 12:40:19",  2,  -56,  1000,  0,  0,  0,  -12,  -26,  -36
388782, 1710333620, "2024/3/13 12:40:20",  6,  -52,  1002,  0,  0,  -1,  -12,  -25,  -37
388982, 1710333620, "2024/3/13 12:40:20",  7,  -61,  1004,  0,  0,  0,  -11,  -27,  -36
389182, 1710333620, "2024/3/13 12:40:20",  0,  -58,  1005,  0,  0,  -1,  -11,  -24,  -36
389382, 1710333620, "2024/3/13 12:40:20",  8,  -55,  1000,  0,  0,  0,  -11,  -27,  -37
389582, 1710333620, "2024/3/13 12:40:20",  7,  -59,  1005,  0,  0,  -1,  -12,  -26,  -37
389782, 1710333621, "2024/3/13 12:40:21",  1,  -58,  1001,  0,  0,  -1,  -11,  -26,  -38
389982, 1710333621, "2024/3/13 12:40:21",  2,  -51,  1000,  0,  0,  0,  -11,  -27,  -37
390182, 1710333621, "2024/3/13 12:40:21",  4,  -61,  1006,  0,  -1,  -1,  -12,  -25,  -36
390382, 1710333621, "2024/3/13 12:40:21",  16,  -44,  998,  0,  0,  -1,  -13,  -26,  -36
390582, 1710333621, "2024/3/13 12:40:21",  5,  -59,  1008,  0,  0,  -1,  -12,  -26,  -38
390782, 1710333622, "2024/3/13 12:40:22",  9,  -62,  1005,  0,  0,  0,  -11,  -26,  -36
390982, 1710333622, "2024/3/13 12:40:22",  4,  -58,  1004,  0,  0,  -1,  -11,  -27,  -37
391182, 1710333622, "2024/3/13 12:40:22",  2,  -63,  1006,  0,  0,  -1,  -12,  -25,  -36
391382, 1710333622, "2024/3/13 12:40:22",  8,  -56,  1006,  0,  0,  0,  -11,  -26,  -37
391582, 1710333622, "2024/3/13 12:40:22",  8,  -51,  1002,  0,  0,  0,  -12,  -24,  -35
391782, 1710333623, "2024/3/13 12:40:23",  5,  -54,  1007,  0,  0,  0,  -11,  -25,  -36
391982, 1710333623, "2024/3/13 12:40:23",  2,  -56,  1003,  0,  0,  -1,  -11,  -25,  -35
392182, 1710333623, "2024/3/13 12:40:23",  6,  -56,  1008,  0,  0,  0,  -10,  -26,  -37
392382, 1710333623, "2024/3/13 12:40:23",  4,  -56,  1003,  0,  0,  0,  -13,  -26,  -37
392582, 1710333623, "2024/3/13 12:40:23",  3,  -55,  1003,  0,  -1,  -1,  -12,  -25,  -37
392782, 1710333624, "2024/3/13 12:40:24",  1,  -53,  1005,  0,  0,  0,  -11,  -25,  -37
392982, 1710333624, "2024/3/13 12:40:24",  3,  -52,  1005,  0,  0,  0,  -11,  -27,  -36
393182, 1710333624, "2024/3/13 12:40:24",  7,  -59,  1005,  0,  0,  0,  -9,  -26,  -36
393382, 1710333624, "2024/3/13 12:40:24",  4,  -55,  1003,  0,  0,  0,  -10,  -26,  -37
393582, 1710333624, "2024/3/13 12:40:24",  3,  -59,  1003,  0,  0,  0,  -12,  -27,  -35
393782, 1710333625, "2024/3/13 12:40:25",  5,  -57,  1002,  0,  0,  0,  -12,  -26,  -37
393982, 1710333625, "2024/3/13 12:40:25",  10,  -60,  1002,  0,  -1,  -1,  -10,  -26,  -37
394182, 1710333625, "2024/3/13 12:40:25",  6,  -62,  1001,  0,  0,  0,  -12,  -25,  -38
394382, 1710333625, "2024/3/13 12:40:25",  1,  -56,  1004,  0,  0,  -1,  -10,  -27,  -37
394582, 1710333625, "2024/3/13 12:40:25",  5,  -58,  1003,  0,  0,  -1,  -11,  -25,  -37
394782, 1710333626, "2024/3/13 12:40:26",  0,  -60,  1006,  0,  0,  -1,  -13,  -26,  -38
394982, 1710333626, "2024/3/13 12:40:26",  6,  -58,  1002,  0,  0,  -1,  -12,  -25,  -37
395182, 1710333626, "2024/3/13 12:40:26",  0,  -60,  1005,  0,  0,  -1,  -11,  -24,  -37
395382, 1710333626, "2024/3/13 12:40:26",  9,  -59,  1002,  0,  -1,  0,  -11,  -26,  -37
395582, 1710333626, "2024/3/13 12:40:26",  1,  -57,  1004,  0,  0,  -1,  -11,  -25,  -37
395782, 1710333627, "2024/3/13 12:40:27",  5,  -59,  1003,  0,  0,  -1,  -12,  -26,  -38
395982, 1710333627, "2024/3/13 12:40:27",  8,  -62,  1005,  0,  0,  0,  -11,  -27,  -36
396182, 1710333627, "2024/3/13 12:40:27",  3,  -53,  1001,  0,  0,  0,  -10,  -25,  -36
396382, 1710333627, "2024/3/13 12:40:27",  6,  -59,  1005,  0,  0,  -1,  -11,  -27,  -37
396582, 1710333627, "2024/3/13 12:40:27",  5,  -61,  1005,  0,  0,  -1,  -12,  -28,  -36
396782, 1710333628, "2024/3/13 12:40:28",  5,  -58,  1002,  0,  0,  -1,  -11,  -26,  -37
396982, 1710333628, "2024/3/13 12:40:28",  8,  -61,  1000,  0,  0,  0,  -10,  -26,  -36
397182, 1710333628, "2024/3/13 12:40:28",  5,  -56,  1006,  0,  0,  -1,  -12,  -27,  -37
397382, 1710333628, "2024/3/13 12:40:28",  4,  -59,  1005,  0,  0,  0,  -11,  -26,  -37
397582, 1710333628, "2024/3/13 12:40:28",  5,  -53,  1004,  0,  0,  0,  -11,  -27,  -37
397782, 1710333629, "2024/3/13 12:40:29",  6,  -55,  1000,  0,  -1,  -1,  -12,  -27,  -37
397982, 1710333629, "2024/3/13 12:40:29",  4,  -56,  1002,  0,  0,  -1,  -11,  -27,  -36
398182, 1710333629, "2024/3/13 12:40:29",  3,  -59,  1005,  0,  0,  0,  -10,  -26,  -38
398382, 1710333629, "2024/3/13 12:40:29",  5,  -53,  1004,  0,  0,  0,  -11,  -26,  -37
398582, 1710333629, "2024/3/13 12:40:29",  4,  -58,  1004,  0,  0,  -1,  -12,  -27,  -37
398782, 1710333630, "2024/3/13 12:40:30",  7,  -55,  1001,  0,  0,  0,  -10,  -26,  -35
398982, 1710333630, "2024/3/13 12:40:30",  6,  -60,  1000,  0,  0,  0,  -11,  -26,  -35
399182, 1710333630, "2024/3/13 12:40:30",  3,  -58,  1002,  0,  0,  -1,  -11,  -27,  -35
399382, 1710333630, "2024/3/13 12:40:30",  8,  -56,  1005,  0,  -1,  -1,  -13,  -26,  -36
399582, 1710333630, "2024/3/13 12:40:30",  3,  -57,  1005,  0,  0,  -1,  -11,  -26,  -36
399782, 1710333631, "2024/3/13 12:40:31",  4,  -61,  1004,  0,  0,  -1,  -12,  -27,  -36
399982, 1710333631, "2024/3/13 12:40:31",  3,  -60,  1002,  0,  0,  0,  -12,  -26,  -36
400182, 1710333631, "2024/3/13 12:40:31",  3,  -64,  1005,  0,  0,  -1,  -12,  -26,  -37
400382, 1710333631, "2024/3/13 12:40:31",  7,  -57,  1000,  0,  0,  0,  -12,  -27,  -36
400582, 1710333631, "2024/3/13 12:40:31",  4,  -57,  1004,  0,  -1,  0,  -11,  -26,  -36
400782, 1710333632, "2024/3/13 12:40:32",  2,  -53,  1004,  0,  0,  0,  -12,  -27,  -38
400982, 1710333632, "2024/3/13 12:40:32",  1,  -53,  1002,  0,  0,  -1,  -12,  -26,  -36
401182, 1710333632, "2024/3/13 12:40:32",  5,  -61,  1005,  0,  0,  -1,  -13,  -27,  -37
401382, 1710333632, "2024/3/13 12:40:32",  2,  -59,  1004,  0,  0,  0,  -12,  -26,  -36
401582, 1710333632, "2024/3/13 12:40:32",  1,  -61,  1001,  0,  0,  0,  -9,  -26,  -35
401782, 1710333633, "2024/3/13 12:40:33",  8,  -57,  1005,  0,  0,  0,  -11,  -26,  -36
401982, 1710333633, "2024/3/13 12:40:33",  9,  -56,  1005,  0,  0,  -1,  -10,  -26,  -37
402182, 1710333633, "2024/3/13 12:40:33",  6,  -57,  1006,  0,  0,  -1,  -11,  -25,  -37
402382, 1710333633, "2024/3/13 12:40:33",  6,  -58,  1004,  0,  0,  -1,  -13,  -24,  -36
402582, 1710333633, "2024/3/13 12:40:33",  2,  -57,  1002,  0,  0,  -1,  -11,  -25,  -37
402782, 1710333634, "2024/3/13 12:40:34",  5,  -58,  1008,  0,  0,  0,  -12,  -25,  -37
402982, 1710333634, "2024/3/13 12:40:34",  5,  -56,  1004,  0,  0,  0,  -11,  -28,  -37
403182, 1710333634, "2024/3/13 12:40:34",  6,  -58,  1004,  0,  0,  0,  -11,  -26,  -38
403382, 1710333634, "2024/3/13 12:40:34",  2,  -55,  1003,  0,  0,  -1,  -12,  -27,  -36
403582, 1710333634, "2024/3/13 12:40:34",  4,  -59,  1004,  0,  0,  0,  -10,  -26,  -35
403782, 1710333635, "2024/3/13 12:40:35",  9,  -58,  1002,  0,  0,  -1,  -11,  -27,  -36
403982, 1710333635, "2024/3/13 12:40:35",  5,  -58,  1001,  0,  0,  0,  -10,  -25,  -35
404182, 1710333635, "2024/3/13 12:40:35",  3,  -56,  1007,  0,  0,  0,  -11,  -26,  -37
404382, 1710333635, "2024/3/13 12:40:35",  3,  -58,  1005,  0,  0,  -1,  -10,  -26,  -36
404582, 1710333635, "2024/3/13 12:40:35",  9,  -55,  1010,  0,  0,  0,  -10,  -25,  -37
404782, 1710333636, "2024/3/13 12:40:36",  0,  -56,  1005,  0,  0,  0,  -11,  -25,  -37
404982, 1710333636, "2024/3/13 12:40:36",  7,  -57,  1009,  0,  0,  0,  -11,  -27,  -37
405182, 1710333636, "2024/3/13 12:40:36",  7,  -59,  1003,  0,  0,  0,  -12,  -26,  -37
405382, 1710333636, "2024/3/13 12:40:36",  1,  -60,  1002,  0,  -1,  -1,  -11,  -26,  -35
405582, 1710333636, "2024/3/13 12:40:36",  4,  -57,  1005,  0,  0,  0,  -14,  -25,  -36
405782, 1710333637, "2024/3/13 12:40:37",  4,  -61,  1006,  0,  -1,  -1,  -11,  -26,  -36
405982, 1710333637, "2024/3/13 12:40:37",  1,  -55,  1002,  0,  0,  -1,  -12,  -28,  -36
406182, 1710333637, "2024/3/13 12:40:37",  7,  -61,  1005,  0,  0,  -1,  -11,  -27,  -37
406382, 1710333637, "2024/3/13 12:40:37",  5,  -62,  1003,  0,  0,  -1,  -10,  -27,  -38
406582, 1710333637, "2024/3/13 12:40:37",  6,  -56,  1002,  0,  0,  0,  -11,  -26,  -35
406782, 1710333638, "2024/3/13 12:40:38",  0,  -58,  1007,  0,  0,  0,  -13,  -26,  -37
406982, 1710333638, "2024/3/13 12:40:38",  5,  -58,  1005,  0,  0,  -1,  -11,  -26,  -37
407182, 1710333638, "2024/3/13 12:40:38",  5,  -65,  1005,  0,  -1,  -1,  -12,  -25,  -37
407382, 1710333638, "2024/3/13 12:40:38",  1,  -57,  1005,  0,  0,  -1,  -10,  -25,  -37
407582, 1710333638, "2024/3/13 12:40:38",  11,  -59,  1005,  0,  0,  -1,  -12,  -26,  -36
407782, 1710333639, "2024/3/13 12:40:39",  8,  -59,  1002,  0,  0,  0,  -10,  -27,  -36
407982, 1710333639, "2024/3/13 12:40:39",  2,  -61,  1004,  0,  0,  -1,  -12,  -27,  -37
408182, 1710333639, "2024/3/13 12:40:39",  3,  -57,  1007,  0,  0,  0,  -9,  -27,  -36
408382, 1710333639, "2024/3/13 12:40:39",  7,  -61,  1002,  0,  0,  0,  -12,  -28,  -36
408582, 1710333639, "2024/3/13 12:40:39",  3,  -56,  1002,  0,  -1,  0,  -11,  -26,  -36
408782, 1710333640, "2024/3/13 12:40:40",  2,  -58,  1007,  0,  0,  -1,  -13,  -26,  -38
408982, 1710333640, "2024/3/13 12:40:40",  1,  -57,  1004,  0,  0,  -1,  -11,  -26,  -36
409182, 1710333640, "2024/3/13 12:40:40",  4,  -58,  1004,  0,  -1,  -1,  -11,  -25,  -36
409382, 1710333640, "2024/3/13 12:40:40",  2,  -58,  1005,  0,  0,  -1,  -10,  -27,  -38
409582, 1710333640, "2024/3/13 12:40:40",  4,  -57,  1005,  0,  -1,  -1,  -12,  -27,  -37
409782, 1710333641, "2024/3/13 12:40:41",  3,  -57,  1005,  0,  0,  0,  -11,  -26,  -36
409982, 1710333641, "2024/3/13 12:40:41",  3,  -61,  1002,  0,  0,  -1,  -11,  -25,  -35
410182, 1710333641, "2024/3/13 12:40:41",  8,  -52,  1003,  0,  -1,  -1,  -12,  -25,  -37
410382, 1710333641, "2024/3/13 12:40:41",  4,  -55,  1005,  0,  0,  0,  -11,  -28,  -36
410582, 1710333641, "2024/3/13 12:40:41",  6,  -57,  1004,  0,  0,  0,  -11,  -27,  -35
410782, 1710333642, "2024/3/13 12:40:42",  4,  -58,  1003,  0,  0,  0,  -11,  -25,  -36
410982, 1710333642, "2024/3/13 12:40:42",  6,  -58,  1002,  0,  0,  -1,  -13,  -25,  -36
411182, 1710333642, "2024/3/13 12:40:42",  4,  -57,  1002,  0,  0,  -1,  -11,  -26,  -38
411382, 1710333642, "2024/3/13 12:40:42",  9,  -59,  1004,  0,  0,  -1,  -11,  -26,  -37
411582, 1710333642, "2024/3/13 12:40:42",  5,  -54,  1006,  0,  0,  0,  -12,  -27,  -35
411782, 1710333643, "2024/3/13 12:40:43",  4,  -59,  1006,  0,  0,  -1,  -13,  -26,  -37
411982, 1710333643, "2024/3/13 12:40:43",  6,  -63,  1005,  0,  0,  -1,  -12,  -27,  -36
412182, 1710333643, "2024/3/13 12:40:43",  7,  -53,  1002,  0,  -1,  0,  -11,  -26,  -37
412382, 1710333643, "2024/3/13 12:40:43",  4,  -61,  1004,  0,  -1,  0,  -12,  -27,  -36
412582, 1710333643, "2024/3/13 12:40:43",  7,  -62,  1006,  0,  0,  -1,  -12,  -27,  -39
412782, 1710333644, "2024/3/13 12:40:44",  10,  -58,  1007,  0,  0,  -1,  -12,  -27,  -37
412982, 1710333644, "2024/3/13 12:40:44",  5,  -53,  1002,  0,  0,  0,  -10,  -27,  -38
413182, 1710333644, "2024/3/13 12:40:44",  5,  -57,  1003,  0,  0,  -1,  -12,  -26,  -38
413382, 1710333644, "2024/3/13 12:40:44",  6,  -57,  1004,  0,  0,  -1,  -11,  -27,  -36
413582, 1710333644, "2024/3/13 12:40:44",  4,  -58,  1003,  0,  0,  0,  -11,  -25,  -36
413782, 1710333645, "2024/3/13 12:40:45",  4,  -58,  1006,  0,  -1,  0,  -11,  -26,  -36
413982, 1710333645, "2024/3/13 12:40:45",  3,  -61,  1000,  0,  0,  0,  -12,  -26,  -36
414182, 1710333645, "2024/3/13 12:40:45",  7,  -56,  1002,  0,  -1,  -1,  -11,  -25,  -35
414382, 1710333645, "2024/3/13 12:40:45",  3,  -60,  1006,  0,  0,  -1,  -11,  -25,  -37
414582, 1710333645, "2024/3/13 12:40:45",  5,  -61,  1004,  0,  0,  0,  -13,  -27,  -36
414782, 1710333646, "2024/3/13 12:40:46",  10,  -58,  1002,  0,  0,  0,  -12,  -27,  -37
414982, 1710333646, "2024/3/13 12:40:46",  5,  -50,  1001,  0,  -1,  -1,  -10,  -25,  -36
415182, 1710333646, "2024/3/13 12:40:46",  6,  -56,  1007,  0,  0,  -1,  -11,  -25,  -36
415382, 1710333646, "2024/3/13 12:40:46",  8,  -56,  1002,  0,  -1,  -1,  -12,  -27,  -35
415582, 1710333646, "2024/3/13 12:40:46",  3,  -58,  1005,  0,  0,  -1,  -11,  -25,  -36
415782, 1710333647, "2024/3/13 12:40:47",  9,  -56,  1004,  0,  -1,  -1,  -11,  -26,  -37
415982, 1710333647, "2024/3/13 12:40:47",  7,  -54,  1001,  0,  0,  -1,  -11,  -26,  -37
416182, 1710333647, "2024/3/13 12:40:47",  5,  -55,  1003,  0,  0,  -1,  -12,  -25,  -37
416382, 1710333647, "2024/3/13 12:40:47",  5,  -59,  1003,  0,  0,  0,  -12,  -26,  -36
416582, 1710333647, "2024/3/13 12:40:47",  3,  -55,  1006,  0,  0,  0,  -12,  -25,  -36
416782, 1710333648, "2024/3/13 12:40:48",  3,  -57,  1004,  0,  -1,  0,  -11,  -25,  -37
416982, 1710333648, "2024/3/13 12:40:48",  6,  -59,  1006,  0,  0,  -1,  -12,  -27,  -37
417182, 1710333648, "2024/3/13 12:40:48",  6,  -62,  1006,  0,  -1,  -1,  -12,  -26,  -37
417382, 1710333648, "2024/3/13 12:40:48",  0,  -58,  1007,  0,  0,  0,  -12,  -26,  -37
417582, 1710333648, "2024/3/13 12:40:48",  4,  -58,  1005,  0,  0,  0,  -12,  -26,  -36
417782, 1710333649, "2024/3/13 12:40:49",  3,  -57,  1004,  0,  -1,  -1,  -12,  -25,  -36
417982, 1710333649, "2024/3/13 12:40:49",  6,  -61,  1005,  0,  0,  0,  -12,  -25,  -36
418182, 1710333649, "2024/3/13 12:40:49",  7,  -57,  1006,  0,  0,  -1,  -10,  -28,  -37
418382, 1710333649, "2024/3/13 12:40:49",  5,  -57,  1005,  0,  0,  -1,  -11,  -26,  -36
418582, 1710333649, "2024/3/13 12:40:49",  4,  -56,  1002,  0,  0,  0,  -10,  -26,  -37
418782, 1710333650, "2024/3/13 12:40:50",  3,  -58,  1007,  0,  0,  -1,  -13,  -26,  -37
418982, 1710333650, "2024/3/13 12:40:50",  3,  -57,  1006,  0,  0,  0,  -11,  -26,  -35
419182, 1710333650, "2024/3/13 12:40:50",  1,  -56,  1006,  0,  0,  0,  -11,  -27,  -36
419382, 1710333650, "2024/3/13 12:40:50",  3,  -58,  1006,  0,  0,  0,  -12,  -28,  -37
419582, 1710333650, "2024/3/13 12:40:50",  4,  -60,  1001,  0,  -1,  -1,  -11,  -26,  -36
419782, 1710333651, "2024/3/13 12:40:51",  3,  -62,  1002,  0,  0,  -1,  -10,  -26,  -37
419982, 1710333651, "2024/3/13 12:40:51",  6,  -56,  1004,  0,  0,  -1,  -11,  -26,  -37
420182, 1710333651, "2024/3/13 12:40:51",  4,  -52,  1000,  0,  0,  -1,  -12,  -26,  -37
420382, 1710333651, "2024/3/13 12:40:51",  6,  -58,  1006,  0,  0,  -1,  -12,  -26,  -38
420582, 1710333651, "2024/3/13 12:40:51",  5,  -60,  1006,  0,  0,  -1,  -12,  -26,  -36
420782, 1710333652, "2024/3/13 12:40:52",  4,  -57,  1002,  0,  -1,  -1,  -11,  -27,  -37
420982, 1710333652, "2024/3/13 12:40:52",  6,  -63,  1002,  0,  0,  -1,  -11,  -27,  -36
421182, 1710333652, "2024/3/13 12:40:52",  3,  -58,  1003,  0,  0,  0,  -12,  -26,  -36
421382, 1710333652, "2024/3/13 12:40:52",  7,  -43,  1003,  0,  0,  0,  -12,  -26,  -36
421582, 1710333652, "2024/3/13 12:40:52",  14,  -47,  1003,  0,  0,  0,  -11,  -26,  -36
421782, 1710333653, "2024/3/13 12:40:53",  6,  -59,  1003,  0,  -1,  -1,  -10,  -26,  -37
421982, 1710333653, "2024/3/13 12:40:53",  8,  -60,  1001,  0,  -1,  -1,  -12,  -25,  -36
422182, 1710333653, "2024/3/13 12:40:53",  13,  -55,  1003,  0,  -1,  -1,  -11,  -27,  -36
422382, 1710333653, "2024/3/13 12:40:53",  6,  -58,  1006,  0,  -1,  -1,  -10,  -28,  -36
422582, 1710333653, "2024/3/13 12:40:53",  7,  -54,  1001,  0,  -1,  -1,  -11,  -27,  -37
422782, 1710333654, "2024/3/13 12:40:54",  -4,  -56,  1006,  0,  0,  -1,  -10,  -27,  -37
422982, 1710333654, "2024/3/13 12:40:54",  -3,  -63,  1004,  0,  0,  0,  -12,  -26,  -36
423182, 1710333654, "2024/3/13 12:40:54",  4,  -60,  1004,  0,  0,  -1,  -11,  -28,  -36
423382, 1710333654, "2024/3/13 12:40:54",  4,  -54,  1002,  0,  0,  -1,  -12,  -27,  -36
423582, 1710333654, "2024/3/13 12:40:54",  6,  -64,  1004,  0,  0,  -1,  -11,  -27,  -36
423782, 1710333655, "2024/3/13 12:40:55",  -7,  -61,  1009,  0,  0,  0,  -10,  -26,  -36
423982, 1710333655, "2024/3/13 12:40:55",  -8,  -72,  979,  0,  -1,  -1,  -10,  -27,  -36
424182, 1710333655, "2024/3/13 12:40:55",  -2,  -56,  1001,  0,  0,  0,  -13,  -24,  -36
424382, 1710333655, "2024/3/13 12:40:55",  -1,  -51,  1000,  0,  -1,  -1,  -11,  -26,  -36
424582, 1710333655, "2024/3/13 12:40:55",  1,  -59,  1004,  0,  0,  -1,  -12,  -25,  -36
424782, 1710333656, "2024/3/13 12:40:56",  6,  -60,  1005,  0,  0,  -1,  -12,  -25,  -36
424982, 1710333656, "2024/3/13 12:40:56",  7,  -53,  1001,  0,  0,  -1,  -11,  -28,  -36
425182, 1710333656, "2024/3/13 12:40:56",  0,  -58,  1007,  0,  0,  0,  -12,  -25,  -36
425382, 1710333656, "2024/3/13 12:40:56",  1,  -64,  1004,  0,  0,  -1,  -13,  -25,  -35
425582, 1710333656, "2024/3/13 12:40:56",  5,  -54,  1006,  0,  0,  -1,  -11,  -26,  -37
425782, 1710333657, "2024/3/13 12:40:57",  10,  -59,  1004,  0,  0,  -1,  -11,  -26,  -36
425982, 1710333657, "2024/3/13 12:40:57",  10,  -60,  1002,  0,  -1,  -1,  -12,  -25,  -37
426182, 1710333657, "2024/3/13 12:40:57",  9,  -64,  1003,  0,  0,  0,  -10,  -25,  -36
426382, 1710333657, "2024/3/13 12:40:57",  3,  -59,  1001,  0,  -1,  -1,  -11,  -27,  -35
426582, 1710333657, "2024/3/13 12:40:57",  4,  -56,  1002,  0,  0,  -1,  -10,  -27,  -36
426782, 1710333658, "2024/3/13 12:40:58",  8,  -56,  1008,  0,  0,  -1,  -11,  -26,  -36
426982, 1710333658, "2024/3/13 12:40:58",  9,  -56,  1003,  0,  0,  -1,  -11,  -27,  -36
427182, 1710333658, "2024/3/13 12:40:58",  3,  -63,  1003,  0,  0,  -1,  -12,  -25,  -36
427382, 1710333658, "2024/3/13 12:40:58",  7,  -61,  1005,  0,  0,  -1,  -11,  -26,  -37
427582, 1710333658, "2024/3/13 12:40:58",  3,  -60,  1003,  0,  0,  -1,  -11,  -25,  -37
427782, 1710333659, "2024/3/13 12:40:59",  4,  -49,  1002,  0,  0,  -1,  -12,  -26,  -37
427982, 1710333659, "2024/3/13 12:40:59",  3,  -51,  1002,  0,  0,  -1,  -10,  -26,  -36
428182, 1710333659, "2024/3/13 12:40:59",  7,  -62,  1002,  0,  0,  0,  -11,  -28,  -36
428382, 1710333659, "2024/3/13 12:40:59",  2,  -56,  1006,  0,  -1,  -1,  -12,  -27,  -36
428582, 1710333659, "2024/3/13 12:40:59",  6,  -58,  1003,  0,  -1,  -1,  -11,  -26,  -37
428782, 1710333660, "2024/3/13 12:41:0",  2,  -57,  1005,  0,  0,  0,  -13,  -27,  -35
428982, 1710333660, "2024/3/13 12:41:0",  3,  -58,  1004,  0,  -1,  0,  -10,  -26,  -35
429182, 1710333660, "2024/3/13 12:41:0",  9,  -59,  1003,  0,  -1,  0,  -11,  -25,  -36
429382, 1710333660, "2024/3/13 12:41:0",  6,  -60,  1004,  0,  0,  -1,  -12,  -26,  -36
429582, 1710333660, "2024/3/13 12:41:0",  1,  -60,  1001,  0,  0,  0,  -12,  -27,  -36
429782, 1710333661, "2024/3/13 12:41:1",  2,  -58,  1004,  0,  0,  -1,  -12,  -25,  -37
429982, 1710333661, "2024/3/13 12:41:1",  5,  -56,  1002,  0,  0,  -1,  -11,  -27,  -36
430182, 1710333661, "2024/3/13 12:41:1",  6,  -57,  1006,  0,  0,  -1,  -11,  -27,  -37
430382, 1710333661, "2024/3/13 12:41:1",  5,  -60,  1001,  0,  0,  0,  -12,  -27,  -37
430582, 1710333661, "2024/3/13 12:41:1",  6,  -60,  1010,  0,  0,  -1,  -10,  -26,  -37
430782, 1710333662, "2024/3/13 12:41:2",  9,  -59,  1006,  0,  0,  0,  -10,  -26,  -38
430982, 1710333662, "2024/3/13 12:41:2",  6,  -54,  1003,  0,  0,  -1,  -11,  -27,  -36
431182, 1710333662, "2024/3/13 12:41:2",  7,  -60,  1003,  0,  0,  0,  -13,  -26,  -36
431382, 1710333662, "2024/3/13 12:41:2",  3,  -61,  1001,  0,  0,  0,  -11,  -27,  -37
431582, 1710333662, "2024/3/13 12:41:2",  7,  -63,  1005,  0,  0,  -1,  -12,  -26,  -37
431782, 1710333663, "2024/3/13 12:41:3",  5,  -63,  1007,  0,  0,  0,  -11,  -28,  -36
431982, 1710333663, "2024/3/13 12:41:3",  14,  -63,  1002,  0,  0,  0,  -10,  -25,  -35
432182, 1710333663, "2024/3/13 12:41:3",  3,  -54,  1002,  0,  -1,  -1,  -12,  -26,  -36
432382, 1710333663, "2024/3/13 12:41:3",  6,  -58,  1004,  0,  0,  -1,  -11,  -26,  -34
432582, 1710333663, "2024/3/13 12:41:3",  3,  -59,  1006,  0,  0,  0,  -10,  -26,  -37
432782, 1710333664, "2024/3/13 12:41:4",  7,  -59,  1004,  0,  0,  0,  -11,  -26,  -37
432982, 1710333664, "2024/3/13 12:41:4",  11,  -57,  1006,  0,  0,  0,  -12,  -25,  -36
433182, 1710333664, "2024/3/13 12:41:4",  6,  -58,  1003,  0,  0,  -1,  -11,  -26,  -35
433382, 1710333664, "2024/3/13 12:41:4",  8,  -57,  1005,  0,  0,  0,  -12,  -27,  -36
433582, 1710333664, "2024/3/13 12:41:4",  9,  -56,  1010,  0,  0,  -1,  -12,  -26,  -37
433782, 1710333665, "2024/3/13 12:41:5",  5,  -57,  1006,  0,  -1,  0,  -11,  -26,  -36
433982, 1710333665, "2024/3/13 12:41:5",  9,  -62,  1004,  0,  0,  -1,  -11,  -27,  -37
434182, 1710333665, "2024/3/13 12:41:5",  10,  -52,  1005,  0,  0,  -1,  -11,  -27,  -36
434382, 1710333665, "2024/3/13 12:41:5",  8,  -50,  1003,  0,  0,  -1,  -11,  -25,  -37
434582, 1710333665, "2024/3/13 12:41:5",  8,  -55,  1002,  0,  0,  -1,  -12,  -26,  -37
434782, 1710333666, "2024/3/13 12:41:6",  6,  -62,  1008,  0,  -1,  -1,  -12,  -27,  -36
434982, 1710333666, "2024/3/13 12:41:6",  3,  -57,  1007,  0,  0,  -1,  -11,  -27,  -36
435182, 1710333666, "2024/3/13 12:41:6",  4,  -57,  1000,  0,  0,  0,  -12,  -27,  -36
435382, 1710333666, "2024/3/13 12:41:6",  5,  -55,  1003,  0,  -1,  0,  -11,  -26,  -37
435582, 1710333666, "2024/3/13 12:41:6",  4,  -61,  1006,  0,  0,  0,  -11,  -27,  -38
435782, 1710333667, "2024/3/13 12:41:7",  5,  -56,  1004,  0,  0,  0,  -12,  -27,  -35
435982, 1710333667, "2024/3/13 12:41:7",  7,  -60,  1003,  0,  0,  -1,  -11,  -26,  -36
436182, 1710333667, "2024/3/13 12:41:7",  5,  -54,  1005,  0,  -1,  -1,  -10,  -27,  -36
436382, 1710333667, "2024/3/13 12:41:7",  4,  -54,  1006,  0,  0,  -1,  -11,  -27,  -36
436582, 1710333667, "2024/3/13 12:41:7",  4,  -54,  1002,  0,  0,  -1,  -11,  -26,  -38
436782, 1710333668, "2024/3/13 12:41:8",  9,  -60,  1002,  0,  0,  -1,  -12,  -27,  -36
436982, 1710333668, "2024/3/13 12:41:8",  6,  -59,  1008,  0,  -1,  -1,  -12,  -26,  -36
437182, 1710333668, "2024/3/13 12:41:8",  6,  -61,  1004,  0,  0,  0,  -10,  -28,  -36
437382, 1710333668, "2024/3/13 12:41:8",  5,  -59,  1007,  0,  0,  0,  -12,  -27,  -36
437582, 1710333668, "2024/3/13 12:41:8",  5,  -58,  1003,  0,  0,  -1,  -12,  -26,  -37
437782, 1710333669, "2024/3/13 12:41:9",  2,  -64,  1008,  0,  0,  0,  -12,  -26,  -36
437982, 1710333669, "2024/3/13 12:41:9",  21,  -37,  1016,  1,  1,  -1,  -12,  -26,  -37
438182, 1710333669, "2024/3/13 12:41:9",  2,  -57,  1007,  0,  0,  -1,  -12,  -25,  -35
438382, 1710333669, "2024/3/13 12:41:9",  7,  -52,  1001,  0,  0,  -1,  -10,  -25,  -37
438582, 1710333669, "2024/3/13 12:41:9",  -2,  -57,  1005,  0,  -1,  0,  -11,  -26,  -34
438782, 1710333670, "2024/3/13 12:41:10",  -1,  -60,  1006,  0,  0,  -1,  -11,  -27,  -36
438982, 1710333670, "2024/3/13 12:41:10",  7,  -62,  1005,  0,  0,  0,  -11,  -27,  -36
439182, 1710333670, "2024/3/13 12:41:10",  3,  -64,  1003,  0,  0,  0,  -12,  -26,  -36
439382, 1710333670, "2024/3/13 12:41:10",  6,  -59,  1002,  0,  0,  -1,  -12,  -28,  -37
439582, 1710333670, "2024/3/13 12:41:10",  1,  -62,  1001,  0,  0,  -1,  -11,  -26,  -36
439782, 1710333671, "2024/3/13 12:41:11",  4,  -56,  1000,  0,  0,  -1,  -12,  -27,  -36
439982, 1710333671, "2024/3/13 12:41:11",  -2,  -56,  1005,  0,  0,  0,  -11,  -26,  -37
440182, 1710333671, "2024/3/13 12:41:11",  2,  -57,  1004,  0,  0,  0,  -11,  -25,  -37
440382, 1710333671, "2024/3/13 12:41:11",  9,  -54,  1012,  0,  0,  -1,  -11,  -26,  -34
440582, 1710333671, "2024/3/13 12:41:11",  4,  -60,  1003,  0,  0,  -1,  -12,  -27,  -38
440782, 1710333672, "2024/3/13 12:41:12",  6,  -66,  1003,  0,  0,  -1,  -11,  -26,  -36
440982, 1710333672, "2024/3/13 12:41:12",  13,  -64,  1005,  0,  0,  0,  -11,  -25,  -37
441182, 1710333672, "2024/3/13 12:41:12",  0,  -61,  1004,  0,  0,  -1,  -10,  -26,  -36
441382, 1710333672, "2024/3/13 12:41:12",  4,  -58,  1000,  0,  0,  -1,  -12,  -26,  -35
441582, 1710333672, "2024/3/13 12:41:12",  6,  -59,  1002,  0,  0,  -1,  -11,  -27,  -36
441782, 1710333673, "2024/3/13 12:41:13",  6,  -43,  1010,  0,  -1,  -1,  -13,  -25,  -36
441982, 1710333673, "2024/3/13 12:41:13",  3,  -57,  1005,  0,  0,  -1,  -11,  -26,  -37
442182, 1710333673, "2024/3/13 12:41:13",  7,  -53,  1005,  0,  0,  -1,  -12,  -26,  -35
442382, 1710333673, "2024/3/13 12:41:13",  8,  -62,  1002,  0,  0,  0,  -11,  -24,  -37
442582, 1710333673, "2024/3/13 12:41:13",  6,  -55,  1006,  0,  0,  0,  -11,  -26,  -35
442782, 1710333674, "2024/3/13 12:41:14",  4,  -61,  1001,  0,  0,  0,  -11,  -26,  -38
442982, 1710333674, "2024/3/13 12:41:14",  2,  -56,  1001,  0,  0,  0,  -12,  -26,  -36
443182, 1710333674, "2024/3/13 12:41:14",  -11,  -55,  997,  1,  -1,  -1,  -12,  -26,  -36
443382, 1710333674, "2024/3/13 12:41:14",  8,  -57,  1002,  0,  0,  -1,  -11,  -27,  -36
443582, 1710333674, "2024/3/13 12:41:14",  8,  -58,  1013,  0,  0,  0,  -11,  -25,  -35
443782, 1710333675, "2024/3/13 12:41:15",  7,  -61,  1003,  1,  0,  -1,  -12,  -25,  -37
443982, 1710333675, "2024/3/13 12:41:15",  3,  -50,  1001,  0,  0,  0,  -12,  -25,  -35
444182, 1710333675, "2024/3/13 12:41:15",  -1,  -53,  1006,  0,  0,  0,  -11,  -23,  -37
444382, 1710333675, "2024/3/13 12:41:15",  0,  -60,  1003,  0,  0,  -1,  -12,  -26,  -36
444582, 1710333675, "2024/3/13 12:41:15",  0,  -53,  1004,  0,  0,  0,  -11,  -26,  -36
444782, 1710333676, "2024/3/13 12:41:16",  6,  -60,  1005,  0,  0,  0,  -12,  -26,  -36
444982, 1710333676, "2024/3/13 12:41:16",  8,  -56,  1005,  0,  -1,  -1,  -11,  -26,  -35
445182, 1710333676, "2024/3/13 12:41:16",  4,  -58,  1001,  0,  0,  0,  -11,  -25,  -36
445382, 1710333676, "2024/3/13 12:41:16",  9,  -62,  1002,  0,  0,  -1,  -11,  -25,  -38
445582, 1710333676, "2024/3/13 12:41:16",  5,  -55,  1003,  0,  0,  -1,  -11,  -26,  -34
445782, 1710333677, "2024/3/13 12:41:17",  4,  -57,  1006,  0,  -1,  -1,  -12,  -26,  -37
445982, 1710333677, "2024/3/13 12:41:17",  3,  -51,  1000,  0,  0,  0,  -12,  -27,  -37
446182, 1710333677, "2024/3/13 12:41:17",  1,  -62,  1007,  0,  0,  -1,  -12,  -27,  -34
446382, 1710333677, "2024/3/13 12:41:17",  4,  -49,  1006,  0,  -1,  0,  -10,  -26,  -37
446582, 1710333677, "2024/3/13 12:41:17",  5,  -61,  999,  0,  0,  0,  -12,  -26,  -35
446782, 1710333678, "2024/3/13 12:41:18",  1,  -63,  1004,  0,  -1,  -1,  -11,  -26,  -37
446982, 1710333678, "2024/3/13 12:41:18",  4,  -58,  1004,  0,  0,  -1,  -10,  -26,  -36
447182, 1710333678, "2024/3/13 12:41:18",  0,  -50,  1004,  0,  0,  -1,  -11,  -27,  -36
447382, 1710333678, "2024/3/13 12:41:18",  2,  -60,  1005,  0,  -1,  0,  -11,  -26,  -37
447582, 1710333678, "2024/3/13 12:41:18",  6,  -60,  1002,  0,  0,  0,  -12,  -27,  -37
447782, 1710333679, "2024/3/13 12:41:19",  8,  -57,  1004,  0,  -1,  -1,  -11,  -26,  -34
447982, 1710333679, "2024/3/13 12:41:19",  3,  -56,  1003,  0,  0,  0,  -13,  -25,  -37
448182, 1710333679, "2024/3/13 12:41:19",  5,  -56,  1001,  0,  0,  0,  -11,  -25,  -37
448382, 1710333679, "2024/3/13 12:41:19",  5,  -53,  1001,  0,  0,  -1,  -11,  -27,  -37
448582, 1710333679, "2024/3/13 12:41:19",  10,  -57,  1001,  0,  0,  0,  -11,  -26,  -37
448782, 1710333680, "2024/3/13 12:41:20",  7,  -59,  1006,  0,  0,  -1,  -12,  -25,  -37
448982, 1710333680, "2024/3/13 12:41:20",  8,  -57,  1004,  0,  0,  -1,  -12,  -27,  -36
449182, 1710333680, "2024/3/13 12:41:20",  8,  -55,  1002,  0,  0,  -1,  -9,  -27,  -37
449382, 1710333680, "2024/3/13 12:41:20",  7,  -58,  1004,  0,  0,  -1,  -11,  -27,  -37
449582, 1710333680, "2024/3/13 12:41:20",  4,  -59,  1002,  0,  0,  -1,  -11,  -25,  -37
449782, 1710333681, "2024/3/13 12:41:21",  4,  -63,  1002,  0,  0,  -1,  -13,  -27,  -38
449982, 1710333681, "2024/3/13 12:41:21",  8,  -60,  1003,  0,  -1,  -1,  -12,  -27,  -38
450182, 1710333681, "2024/3/13 12:41:21",  4,  -65,  1000,  0,  0,  -1,  -11,  -26,  -37
450382, 1710333681, "2024/3/13 12:41:21",  10,  -54,  1006,  0,  0,  -1,  -12,  -26,  -37
450582, 1710333681, "2024/3/13 12:41:21",  4,  -45,  999,  1,  0,  -1,  -12,  -25,  -35
450782, 1710333682, "2024/3/13 12:41:22",  16,  -72,  1006,  0,  0,  -1,  -11,  -26,  -37
450982, 1710333682, "2024/3/13 12:41:22",  17,  -62,  1003,  0,  0,  -1,  -12,  -25,  -36
451182, 1710333682, "2024/3/13 12:41:22",  17,  -67,  1004,  0,  0,  -1,  -11,  -26,  -37
451382, 1710333682, "2024/3/13 12:41:22",  9,  -60,  1007,  0,  -1,  -1,  -12,  -25,  -37
451582, 1710333682, "2024/3/13 12:41:22",  4,  -58,  1003,  0,  0,  0,  -13,  -26,  -37
451782, 1710333683, "2024/3/13 12:41:23",  5,  -61,  1006,  0,  0,  0,  -11,  -25,  -37
451982, 1710333683, "2024/3/13 12:41:23",  7,  -56,  1004,  0,  0,  0,  -12,  -25,  -36
452182, 1710333683, "2024/3/13 12:41:23",  6,  -61,  1007,  0,  0,  -1,  -12,  -25,  -36
452382, 1710333683, "2024/3/13 12:41:23",  11,  -54,  996,  0,  -1,  -1,  -12,  -26,  -37
452582, 1710333683, "2024/3/13 12:41:23",  7,  -67,  1003,  0,  0,  -1,  -11,  -27,  -36
452782, 1710333684, "2024/3/13 12:41:24",  0,  -56,  1005,  0,  0,  -1,  -11,  -26,  -37
452982, 1710333684, "2024/3/13 12:41:24",  5,  -61,  1003,  0,  0,  0,  -11,  -26,  -37
453182, 1710333684, "2024/3/13 12:41:24",  4,  -58,  999,  0,  0,  0,  -10,  -27,  -36
453382, 1710333684, "2024/3/13 12:41:24",  3,  -62,  1006,  0,  0,  -1,  -12,  -27,  -37
453582, 1710333684, "2024/3/13 12:41:24",  8,  -57,  1005,  0,  0,  -1,  -11,  -26,  -36
453782, 1710333685, "2024/3/13 12:41:25",  5,  -55,  1002,  0,  0,  -1,  -11,  -26,  -37
453982, 1710333685, "2024/3/13 12:41:25",  3,  -59,  1004,  0,  0,  -1,  -12,  -25,  -36
454182, 1710333685, "2024/3/13 12:41:25",  6,  -56,  1002,  0,  -1,  -1,  -12,  -24,  -36
454382, 1710333685, "2024/3/13 12:41:25",  5,  -66,  1005,  0,  0,  -1,  -11,  -25,  -36
454582, 1710333685, "2024/3/13 12:41:25",  8,  -63,  1002,  0,  0,  -1,  -12,  -25,  -37
454782, 1710333686, "2024/3/13 12:41:26",  7,  -59,  1003,  0,  0,  -1,  -13,  -25,  -36
454982, 1710333686, "2024/3/13 12:41:26",  4,  -63,  1005,  0,  0,  -1,  -10,  -27,  -36
455182, 1710333686, "2024/3/13 12:41:26",  3,  -64,  1003,  0,  0,  -1,  -11,  -27,  -37
455382, 1710333686, "2024/3/13 12:41:26",  7,  -60,  1007,  0,  0,  0,  -10,  -26,  -38
455582, 1710333686, "2024/3/13 12:41:26",  6,  -53,  1002,  0,  0,  0,  -13,  -26,  -35
455782, 1710333687, "2024/3/13 12:41:27",  7,  -59,  1006,  0,  0,  0,  -11,  -26,  -36
455982, 1710333687, "2024/3/13 12:41:27",  11,  -54,  1006,  0,  0,  -1,  -13,  -27,  -36
456182, 1710333687, "2024/3/13 12:41:27",  5,  -52,  999,  0,  0,  0,  -11,  -26,  -36
456382, 1710333687, "2024/3/13 12:41:27",  3,  -66,  1007,  0,  0,  -1,  -12,  -25,  -36
456582, 1710333687, "2024/3/13 12:41:27",  10,  -59,  1006,  0,  0,  0,  -10,  -25,  -36
456782, 1710333688, "2024/3/13 12:41:28",  1,  -56,  1004,  0,  -1,  0,  -12,  -26,  -38
456982, 1710333688, "2024/3/13 12:41:28",  0,  -63,  992,  0,  0,  -1,  -10,  -27,  -36
457182, 1710333688, "2024/3/13 12:41:28",  9,  -65,  1006,  0,  0,  -1,  -11,  -26,  -37
457382, 1710333688, "2024/3/13 12:41:28",  7,  -61,  1003,  0,  0,  0,  -11,  -26,  -37
457582, 1710333688, "2024/3/13 12:41:28",  5,  -56,  1006,  0,  0,  -1,  -11,  -26,  -36
457782, 1710333689, "2024/3/13 12:41:29",  6,  -56,  1000,  0,  0,  -1,  -11,  -26,  -36
457982, 1710333689, "2024/3/13 12:41:29",  14,  -54,  1004,  0,  0,  -1,  -12,  -26,  -36
458182, 1710333689, "2024/3/13 12:41:29",  9,  -59,  1004,  0,  0,  -1,  -10,  -27,  -37
458382, 1710333689, "2024/3/13 12:41:29",  2,  -58,  1002,  0,  -1,  -1,  -12,  -27,  -37
458582, 1710333689, "2024/3/13 12:41:29",  4,  -51,  1005,  0,  0,  0,  -11,  -26,  -37
458782, 1710333690, "2024/3/13 12:41:30",  7,  -57,  994,  0,  -1,  -1,  -12,  -27,  -36
458982, 1710333690, "2024/3/13 12:41:30",  3,  -62,  1005,  0,  0,  0,  -11,  -25,  -35
459182, 1710333690, "2024/3/13 12:41:30",  5,  -57,  1004,  0,  0,  0,  -11,  -27,  -36
459382, 1710333690, "2024/3/13 12:41:30",  0,  -64,  1003,  0,  0,  -1,  -11,  -26,  -36
459582, 1710333690, "2024/3/13 12:41:30",  4,  -56,  998,  0,  0,  -1,  -11,  -26,  -37
459782, 1710333691, "2024/3/13 12:41:31",  5,  -61,  1009,  0,  0,  -1,  -14,  -26,  -36
459982, 1710333691, "2024/3/13 12:41:31",  10,  -55,  1005,  0,  0,  -1,  -12,  -27,  -36
460182, 1710333691, "2024/3/13 12:41:31",  1,  -57,  1000,  0,  0,  -1,  -11,  -25,  -37
460382, 1710333691, "2024/3/13 12:41:31",  6,  -48,  1006,  0,  -1,  -1,  -11,  -26,  -38
460582, 1710333691, "2024/3/13 12:41:31",  4,  -54,  1007,  0,  -1,  -1,  -10,  -26,  -38
460782, 1710333692, "2024/3/13 12:41:32",  4,  -61,  1004,  0,  -1,  -1,  -12,  -26,  -37
460982, 1710333692, "2024/3/13 12:41:32",  15,  -73,  1003,  1,  0,  0,  -11,  -25,  -36
461182, 1710333692, "2024/3/13 12:41:32",  7,  -65,  1003,  0,  0,  -1,  -13,  -25,  -36
461382, 1710333692, "2024/3/13 12:41:32",  5,  -58,  999,  0,  0,  0,  -12,  -27,  -36
461582, 1710333692, "2024/3/13 12:41:32",  2,  -54,  1008,  0,  0,  -1,  -11,  -27,  -37
461782, 1710333693, "2024/3/13 12:41:33",  5,  -56,  1004,  0,  0,  0,  -12,  -27,  -34
461982, 1710333693, "2024/3/13 12:41:33",  3,  -54,  1002,  0,  0,  0,  -10,  -25,  -37
462182, 1710333693, "2024/3/13 12:41:33",  4,  -59,  1002,  0,  0,  0,  -13,  -25,  -35
462382, 1710333693, "2024/3/13 12:41:33",  7,  -62,  1005,  0,  -1,  -1,  -11,  -25,  -36
462582, 1710333693, "2024/3/13 12:41:33",  2,  -57,  1004,  0,  0,  0,  -13,  -25,  -37
462782, 1710333694, "2024/3/13 12:41:34",  1,  -58,  1001,  0,  0,  0,  -12,  -27,  -35
462982, 1710333694, "2024/3/13 12:41:34",  4,  -64,  1003,  0,  0,  -1,  -13,  -25,  -36
463182, 1710333694, "2024/3/13 12:41:34",  0,  -53,  1005,  0,  0,  0,  -11,  -26,  -37
463382, 1710333694, "2024/3/13 12:41:34",  11,  -64,  1005,  0,  0,  -1,  -12,  -27,  -37
463582, 1710333694, "2024/3/13 12:41:34",  8,  -60,  1002,  0,  0,  -1,  -11,  -25,  -37
463782, 1710333695, "2024/3/13 12:41:35",  4,  -65,  1005,  0,  0,  -1,  -12,  -25,  -38
463982, 1710333695, "2024/3/13 12:41:35",  1,  -53,  1004,  0,  0,  0,  -12,  -25,  -37
464182, 1710333695, "2024/3/13 12:41:35",  7,  -56,  1003,  0,  0,  -1,  -12,  -26,  -36
464382, 1710333695, "2024/3/13 12:41:35",  3,  -58,  1002,  0,  -1,  -1,  -11,  -26,  -39
464582, 1710333695, "2024/3/13 12:41:35",  4,  -55,  1006,  0,  0,  -1,  -12,  -27,  -35
464782, 1710333696, "2024/3/13 12:41:36",  3,  -55,  1004,  0,  0,  -1,  -11,  -25,  -36
464982, 1710333696, "2024/3/13 12:41:36",  28,  -59,  1036,  0,  0,  -1,  -9,  -26,  -36
465182, 1710333696, "2024/3/13 12:41:36",  4,  -61,  1005,  0,  0,  -1,  -12,  -25,  -36
465382, 1710333696, "2024/3/13 12:41:36",  6,  -58,  1006,  0,  0,  -1,  -11,  -26,  -36
465582, 1710333696, "2024/3/13 12:41:36",  7,  -55,  1006,  0,  -1,  0,  -11,  -27,  -36
465782, 1710333697, "2024/3/13 12:41:37",  4,  -56,  1001,  0,  0,  -1,  -11,  -27,  -36
465982, 1710333697, "2024/3/13 12:41:37",  4,  -57,  1005,  0,  0,  -1,  -11,  -27,  -37
466182, 1710333697, "2024/3/13 12:41:37",  2,  -59,  1002,  0,  0,  0,  -12,  -27,  -34
466382, 1710333697, "2024/3/13 12:41:37",  6,  -51,  1003,  0,  0,  -1,  -12,  -26,  -36
466582, 1710333697, "2024/3/13 12:41:37",  7,  -48,  1003,  0,  0,  -1,  -12,  -26,  -36
466782, 1710333698, "2024/3/13 12:41:38",  9,  -66,  1005,  0,  0,  -1,  -12,  -27,  -37
466982, 1710333698, "2024/3/13 12:41:38",  7,  -50,  1003,  0,  0,  -1,  -12,  -25,  -38
467182, 1710333698, "2024/3/13 12:41:38",  9,  -56,  1004,  0,  -1,  -1,  -12,  -26,  -36
467382, 1710333698, "2024/3/13 12:41:38",  -1,  -63,  1001,  0,  0,  -1,  -12,  -27,  -37
467582, 1710333698, "2024/3/13 12:41:38",  4,  -54,  1004,  0,  0,  -1,  -11,  -27,  -37
467782, 1710333699, "2024/3/13 12:41:39",  8,  -61,  1000,  0,  0,  -1,  -12,  -25,  -38
467982, 1710333699, "2024/3/13 12:41:39",  6,  -57,  1002,  0,  0,  0,  -11,  -27,  -37
468182, 1710333699, "2024/3/13 12:41:39",  5,  -56,  1003,  0,  0,  0,  -11,  -26,  -36
468382, 1710333699, "2024/3/13 12:41:39",  5,  -57,  1006,  0,  0,  0,  -10,  -26,  -37
468582, 1710333699, "2024/3/13 12:41:39",  9,  -60,  1002,  0,  0,  -1,  -10,  -26,  -36
468782, 1710333700, "2024/3/13 12:41:40",  7,  -59,  1005,  0,  0,  -1,  -13,  -26,  -37
468982, 1710333700, "2024/3/13 12:41:40",  5,  -56,  1008,  0,  0,  -1,  -12,  -26,  -37
469182, 1710333700, "2024/3/13 12:41:40",  7,  -58,  1003,  0,  0,  -1,  -10,  -27,  -38
469382, 1710333700, "2024/3/13 12:41:40",  1,  -52,  1003,  0,  0,  -1,  -11,  -25,  -36
469582, 1710333700, "2024/3/13 12:41:40",  5,  -59,  1003,  0,  0,  -1,  -12,  -27,  -37
469782, 1710333701, "2024/3/13 12:41:41",  6,  -56,  1004,  0,  0,  -1,  -12,  -27,  -36
469982, 1710333701, "2024/3/13 12:41:41",  9,  -58,  1004,  0,  0,  -1,  -12,  -25,  -37
470182, 1710333701, "2024/3/13 12:41:41",  3,  -56,  1004,  0,  0,  0,  -12,  -27,  -36
470382, 1710333701, "2024/3/13 12:41:41",  6,  -59,  1006,  0,  0,  -1,  -12,  -26,  -36
470582, 1710333701, "2024/3/13 12:41:41",  3,  -58,  1003,  0,  0,  0,  -12,  -26,  -37
470782, 1710333702, "2024/3/13 12:41:42",  8,  -57,  1005,  0,  0,  -1,  -12,  -25,  -36
470982, 1710333702, "2024/3/13 12:41:42",  6,  -56,  1006,  0,  0,  -1,  -11,  -25,  -37
471182, 1710333702, "2024/3/13 12:41:42",  4,  -57,  1002,  0,  0,  -1,  -12,  -27,  -36
471382, 1710333702, "2024/3/13 12:41:42",  4,  -56,  1003,  0,  0,  0,  -11,  -27,  -37
471582, 1710333702, "2024/3/13 12:41:42",  2,  -59,  1000,  0,  0,  0,  -12,  -27,  -37
471782, 1710333703, "2024/3/13 12:41:43",  3,  -54,  1007,  0,  0,  -1,  -10,  -25,  -35
471982, 1710333703, "2024/3/13 12:41:43",  8,  -59,  1006,  0,  0,  0,  -11,  -25,  -36
472182, 1710333703, "2024/3/13 12:41:43",  6,  -56,  1005,  0,  -1,  -1,  -12,  -24,  -36
472382, 1710333703, "2024/3/13 12:41:43",  3,  -57,  1002,  0,  0,  0,  -11,  -25,  -37
472582, 1710333703, "2024/3/13 12:41:43",  6,  -62,  1006,  0,  0,  0,  -10,  -25,  -36
472782, 1710333704, "2024/3/13 12:41:44",  1,  -62,  1001,  0,  0,  -1,  -11,  -25,  -37
472982, 1710333704, "2024/3/13 12:41:44",  5,  -62,  1004,  0,  0,  -1,  -11,  -27,  -35
473182, 1710333704, "2024/3/13 12:41:44",  4,  -56,  1002,  0,  0,  0,  -13,  -26,  -36
473382, 1710333704, "2024/3/13 12:41:44",  1,  -56,  1003,  0,  0,  0,  -10,  -25,  -35
473582, 1710333704, "2024/3/13 12:41:44",  3,  -59,  1007,  0,  0,  -1,  -11,  -26,  -36
473782, 1710333705, "2024/3/13 12:41:45",  3,  -60,  1002,  0,  0,  0,  -12,  -27,  -35
473982, 1710333705, "2024/3/13 12:41:45",  1,  -58,  1003,  0,  0,  0,  -11,  -26,  -34
474182, 1710333705, "2024/3/13 12:41:45",  6,  -61,  1008,  0,  -1,  -1,  -12,  -24,  -36
474382, 1710333705, "2024/3/13 12:41:45",  2,  -58,  1005,  0,  0,  -1,  -10,  -26,  -36
474582, 1710333705, "2024/3/13 12:41:45",  6,  -57,  1006,  0,  0,  -1,  -13,  -25,  -37
474782, 1710333706, "2024/3/13 12:41:46",  7,  -55,  1004,  0,  0,  0,  -11,  -26,  -36
474982, 1710333706, "2024/3/13 12:41:46",  7,  -60,  1003,  0,  0,  -1,  -11,  -26,  -37
475182, 1710333706, "2024/3/13 12:41:46",  6,  -60,  1006,  0,  0,  -1,  -11,  -25,  -36
475382, 1710333706, "2024/3/13 12:41:46",  5,  -58,  1005,  0,  -1,  -1,  -13,  -26,  -36
475582, 1710333706, "2024/3/13 12:41:46",  4,  -56,  1003,  0,  0,  -1,  -11,  -27,  -36
475782, 1710333707, "2024/3/13 12:41:47",  0,  -58,  1005,  0,  0,  0,  -10,  -26,  -35
475982, 1710333707, "2024/3/13 12:41:47",  9,  -62,  1005,  0,  0,  0,  -11,  -26,  -37
476182, 1710333707, "2024/3/13 12:41:47",  0,  -61,  1003,  0,  0,  -1,  -10,  -26,  -36
476382, 1710333707, "2024/3/13 12:41:47",  2,  -60,  1004,  0,  0,  -1,  -11,  -26,  -35
476582, 1710333707, "2024/3/13 12:41:47",  4,  -61,  1007,  0,  -1,  -1,  -11,  -26,  -35
476782, 1710333708, "2024/3/13 12:41:48",  10,  -62,  1004,  0,  0,  -1,  -13,  -26,  -36
476982, 1710333708, "2024/3/13 12:41:48",  2,  -54,  1004,  0,  0,  -1,  -10,  -27,  -36
477182, 1710333708, "2024/3/13 12:41:48",  0,  -54,  1003,  0,  0,  -1,  -11,  -26,  -36
477382, 1710333708, "2024/3/13 12:41:48",  3,  -58,  1002,  0,  0,  -1,  -11,  -27,  -37
477582, 1710333708, "2024/3/13 12:41:48",  6,  -58,  1005,  0,  -1,  -1,  -11,  -26,  -34
477782, 1710333709, "2024/3/13 12:41:49",  4,  -62,  1003,  0,  -1,  0,  -11,  -26,  -36
477982, 1710333709, "2024/3/13 12:41:49",  7,  -62,  1002,  0,  0,  -1,  -11,  -25,  -36
478182, 1710333709, "2024/3/13 12:41:49",  8,  -63,  1006,  0,  0,  -1,  -11,  -26,  -37
478382, 1710333709, "2024/3/13 12:41:49",  4,  -57,  1009,  0,  0,  -1,  -12,  -26,  -37
478582, 1710333709, "2024/3/13 12:41:49",  8,  -58,  1005,  0,  -1,  0,  -11,  -27,  -36
478782, 1710333710, "2024/3/13 12:41:50",  5,  -54,  1006,  0,  0,  0,  -11,  -26,  -37
478982, 1710333710, "2024/3/13 12:41:50",  8,  -61,  1004,  0,  0,  -1,  -11,  -27,  -36
479182, 1710333710, "2024/3/13 12:41:50",  5,  -57,  1005,  0,  -1,  -1,  -12,  -26,  -35
479382, 1710333710, "2024/3/13 12:41:50",  7,  -56,  1005,  0,  0,  -1,  -11,  -27,  -36
479582, 1710333710, "2024/3/13 12:41:50",  2,  -59,  1003,  0,  0,  0,  -11,  -27,  -35
479782, 1710333711, "2024/3/13 12:41:51",  0,  -55,  1008,  0,  0,  -1,  -12,  -27,  -36
479982, 1710333711, "2024/3/13 12:41:51",  5,  -54,  1004,  0,  0,  0,  -12,  -26,  -35
480182, 1710333711, "2024/3/13 12:41:51",  6,  -49,  1004,  0,  0,  -1,  -11,  -26,  -34
480382, 1710333711, "2024/3/13 12:41:51",  4,  -57,  1004,  0,  0,  -1,  -9,  -27,  -35
480582, 1710333711, "2024/3/13 12:41:51",  2,  -57,  1006,  0,  0,  0,  -12,  -26,  -36
480782, 1710333712, "2024/3/13 12:41:52",  4,  -58,  1006,  0,  0,  -1,  -12,  -27,  -36
480982, 1710333712, "2024/3/13 12:41:52",  9,  -61,  1004,  0,  0,  0,  -12,  -25,  -35
481182, 1710333712, "2024/3/13 12:41:52",  2,  -55,  1003,  0,  0,  -1,  -11,  -26,  -36
481382, 1710333712, "2024/3/13 12:41:52",  6,  -53,  1004,  0,  0,  0,  -12,  -27,  -38
481582, 1710333712, "2024/3/13 12:41:52",  7,  -54,  1003,  0,  0,  -1,  -11,  -26,  -36
481782, 1710333713, "2024/3/13 12:41:53",  6,  -54,  1006,  0,  -1,  -1,  -11,  -27,  -36
481982, 1710333713, "2024/3/13 12:41:53",  6,  -60,  1003,  0,  0,  -1,  -11,  -27,  -36
482182, 1710333713, "2024/3/13 12:41:53",  4,  -55,  1004,  0,  0,  -1,  -11,  -27,  -35
482382, 1710333713, "2024/3/13 12:41:53",  7,  -54,  1006,  0,  0,  -1,  -11,  -26,  -34
482582, 1710333713, "2024/3/13 12:41:53",  11,  -58,  1004,  0,  0,  -1,  -13,  -27,  -36
482782, 1710333714, "2024/3/13 12:41:54",  7,  -56,  1005,  0,  0,  -1,  -10,  -26,  -36
482982, 1710333714, "2024/3/13 12:41:54",  1,  -58,  1004,  0,  0,  -1,  -12,  -27,  -37
483182, 1710333714, "2024/3/13 12:41:54",  7,  -57,  1006,  0,  0,  0,  -10,  -27,  -34
483382, 1710333714, "2024/3/13 12:41:54",  7,  -60,  1006,  0,  0,  0,  -10,  -26,  -35
483582, 1710333714, "2024/3/13 12:41:54",  6,  -57,  1005,  0,  -1,  -1,  -10,  -27,  -36
483782, 1710333715, "2024/3/13 12:41:55",  8,  -53,  1005,  0,  0,  -1,  -12,  -25,  -35
483982, 1710333715, "2024/3/13 12:41:55",  4,  -59,  1006,  0,  0,  -1,  -11,  -25,  -36
484182, 1710333715, "2024/3/13 12:41:55",  7,  -56,  1004,  0,  0,  0,  -11,  -25,  -36
484382, 1710333715, "2024/3/13 12:41:55",  4,  -56,  1006,  0,  -1,  -1,  -11,  -26,  -36
484582, 1710333715, "2024/3/13 12:41:55",  1,  -61,  1000,  0,  0,  -1,  -11,  -28,  -35
484782, 1710333716, "2024/3/13 12:41:56",  8,  -56,  1001,  0,  0,  0,  -12,  -26,  -36
484982, 1710333716, "2024/3/13 12:41:56",  5,  -55,  1004,  0,  0,  -1,  -12,  -26,  -36
485182, 1710333716, "2024/3/13 12:41:56",  6,  -53,  1005,  0,  0,  -1,  -11,  -26,  -36
485382, 1710333716, "2024/3/13 12:41:56",  3,  -57,  1005,  0,  0,  0,  -12,  -27,  -36
485582, 1710333716, "2024/3/13 12:41:56",  0,  -56,  1007,  0,  0,  0,  -11,  -26,  -37
485782, 1710333717, "2024/3/13 12:41:57",  7,  -50,  1004,  0,  0,  0,  -12,  -27,  -34
485982, 1710333717, "2024/3/13 12:41:57",  7,  -61,  1007,  0,  0,  -1,  -11,  -26,  -37
486182, 1710333717, "2024/3/13 12:41:57",  6,  -54,  1002,  0,  -1,  -1,  -11,  -25,  -36
486382, 1710333717, "2024/3/13 12:41:57",  3,  -54,  1006,  0,  0,  -1,  -12,  -25,  -35
486582, 1710333717, "2024/3/13 12:41:57",  2,  -59,  1004,  0,  0,  0,  -10,  -27,  -36
486782, 1710333718, "2024/3/13 12:41:58",  4,  -60,  1005,  0,  0,  0,  -12,  -26,  -36
486982, 1710333718, "2024/3/13 12:41:58",  7,  -55,  1005,  0,  0,  -1,  -12,  -26,  -36
487182, 1710333718, "2024/3/13 12:41:58",  4,  -57,  1003,  0,  -1,  0,  -10,  -26,  -33
487382, 1710333718, "2024/3/13 12:41:58",  7,  -59,  1003,  0,  0,  -1,  -11,  -26,  -36
487582, 1710333718, "2024/3/13 12:41:58",  6,  -60,  1004,  0,  0,  -1,  -9,  -25,  -35
487782, 1710333719, "2024/3/13 12:41:59",  8,  -63,  1001,  0,  0,  -1,  -13,  -26,  -36
487982, 1710333719, "2024/3/13 12:41:59",  5,  -63,  1002,  0,  0,  0,  -12,  -28,  -36
488182, 1710333719, "2024/3/13 12:41:59",  9,  -51,  1003,  0,  -1,  0,  -12,  -29,  -37
488382, 1710333719, "2024/3/13 12:41:59",  2,  -58,  1007,  0,  0,  0,  -11,  -25,  -36
488582, 1710333719, "2024/3/13 12:41:59",  9,  -57,  1002,  0,  0,  -1,  -11,  -26,  -37
488782, 1710333720, "2024/3/13 12:42:0",  10,  -52,  1002,  0,  0,  0,  -12,  -26,  -36
488982, 1710333720, "2024/3/13 12:42:0",  4,  -62,  987,  0,  -1,  -1,  -11,  -25,  -35
489182, 1710333720, "2024/3/13 12:42:0",  3,  -59,  1007,  0,  0,  0,  -11,  -25,  -36
489382, 1710333720, "2024/3/13 12:42:0",  6,  -58,  1007,  0,  0,  0,  -11,  -28,  -35
489582, 1710333720, "2024/3/13 12:42:0",  7,  -59,  1002,  0,  0,  -1,  -11,  -25,  -36
489782, 1710333721, "2024/3/13 12:42:1",  3,  -62,  1005,  0,  0,  -1,  -12,  -27,  -35
489982, 1710333721, "2024/3/13 12:42:1",  0,  -59,  1005,  0,  0,  -1,  -11,  -26,  -36
490182, 1710333721, "2024/3/13 12:42:1",  1,  -58,  1000,  0,  -1,  -1,  -11,  -27,  -36
490382, 1710333721, "2024/3/13 12:42:1",  0,  -60,  1003,  0,  0,  0,  -12,  -26,  -37
490582, 1710333721, "2024/3/13 12:42:1",  14,  -58,  1002,  0,  0,  -1,  -10,  -26,  -37
490782, 1710333722, "2024/3/13 12:42:2",  4,  -64,  1005,  0,  0,  -1,  -11,  -27,  -36
490982, 1710333722, "2024/3/13 12:42:2",  2,  -65,  1000,  0,  0,  -1,  -11,  -26,  -35
491182, 1710333722, "2024/3/13 12:42:2",  6,  -42,  1000,  0,  0,  -1,  -11,  -27,  -36
491382, 1710333722, "2024/3/13 12:42:2",  1,  -49,  1000,  0,  0,  -1,  -13,  -26,  -36
491582, 1710333722, "2024/3/13 12:42:2",  8,  -59,  1005,  0,  -1,  -1,  -12,  -26,  -37
491782, 1710333723, "2024/3/13 12:42:3",  6,  -58,  1003,  0,  0,  -1,  -12,  -26,  -36
491982, 1710333723, "2024/3/13 12:42:3",  2,  -54,  1004,  0,  0,  0,  -12,  -24,  -35
492182, 1710333723, "2024/3/13 12:42:3",  1,  -58,  1006,  0,  0,  0,  -11,  -27,  -36
492382, 1710333723, "2024/3/13 12:42:3",  9,  -55,  1004,  0,  0,  -1,  -11,  -25,  -38
492582, 1710333723, "2024/3/13 12:42:3",  4,  -60,  1015,  0,  0,  0,  -11,  -25,  -37
492782, 1710333724, "2024/3/13 12:42:4",  4,  -66,  1007,  0,  0,  0,  -11,  -27,  -36
492982, 1710333724, "2024/3/13 12:42:4",  4,  -59,  1003,  0,  0,  -1,  -11,  -27,  -36
493182, 1710333724, "2024/3/13 12:42:4",  1,  -59,  1004,  0,  0,  -1,  -11,  -26,  -36
493382, 1710333724, "2024/3/13 12:42:4",  6,  -57,  1006,  0,  -1,  -1,  -10,  -26,  -37
493582, 1710333724, "2024/3/13 12:42:4",  2,  -61,  1003,  0,  -1,  -1,  -11,  -27,  -36
493782, 1710333725, "2024/3/13 12:42:5",  9,  -56,  1005,  0,  0,  0,  -13,  -25,  -36
493982, 1710333725, "2024/3/13 12:42:5",  5,  -58,  1006,  0,  -1,  -1,  -9,  -27,  -35
494182, 1710333725, "2024/3/13 12:42:5",  1,  -59,  1005,  0,  0,  0,  -11,  -28,  -36
494382, 1710333725, "2024/3/13 12:42:5",  8,  -59,  1006,  0,  0,  0,  -11,  -25,  -35
494582, 1710333725, "2024/3/13 12:42:5",  3,  -60,  1005,  0,  0,  0,  -11,  -26,  -36
494782, 1710333726, "2024/3/13 12:42:6",  3,  -64,  1003,  0,  0,  -1,  -11,  -26,  -37
494982, 1710333726, "2024/3/13 12:42:6",  8,  -61,  1000,  0,  0,  -1,  -12,  -26,  -36
495182, 1710333726, "2024/3/13 12:42:6",  8,  -58,  1004,  0,  0,  -1,  -12,  -27,  -36
495382, 1710333726, "2024/3/13 12:42:6",  8,  -64,  1005,  0,  0,  -1,  -12,  -25,  -36
495582, 1710333726, "2024/3/13 12:42:6",  1,  -60,  1003,  0,  0,  -1,  -11,  -26,  -36
495782, 1710333727, "2024/3/13 12:42:7",  4,  -56,  1004,  0,  0,  -1,  -11,  -27,  -35
495982, 1710333727, "2024/3/13 12:42:7",  5,  -57,  1007,  0,  0,  -1,  -12,  -28,  -35
496182, 1710333727, "2024/3/13 12:42:7",  5,  -55,  1004,  0,  0,  -1,  -12,  -28,  -36
496382, 1710333727, "2024/3/13 12:42:7",  2,  -57,  1005,  0,  0,  -1,  -10,  -26,  -35
496582, 1710333727, "2024/3/13 12:42:7",  0,  -56,  1003,  0,  0,  -1,  -10,  -26,  -36
496782, 1710333728, "2024/3/13 12:42:8",  4,  -58,  1000,  0,  0,  0,  -13,  -26,  -37
496982, 1710333728, "2024/3/13 12:42:8",  5,  -55,  1005,  0,  0,  0,  -13,  -26,  -36
497182, 1710333728, "2024/3/13 12:42:8",  6,  -58,  1007,  0,  0,  -1,  -11,  -26,  -36
497382, 1710333728, "2024/3/13 12:42:8",  7,  -55,  1005,  0,  0,  0,  -12,  -27,  -35
497582, 1710333728, "2024/3/13 12:42:8",  7,  -56,  1001,  0,  -1,  -1,  -13,  -27,  -36
497782, 1710333729, "2024/3/13 12:42:9",  4,  -58,  1005,  0,  0,  -1,  -12,  -25,  -36
497982, 1710333729, "2024/3/13 12:42:9",  7,  -58,  1000,  0,  0,  -1,  -11,  -27,  -37
498182, 1710333729, "2024/3/13 12:42:9",  4,  -52,  1003,  0,  0,  0,  -12,  -25,  -36
498382, 1710333729, "2024/3/13 12:42:9",  4,  -60,  1003,  0,  0,  0,  -11,  -27,  -36
498582, 1710333729, "2024/3/13 12:42:9",  9,  -52,  1003,  0,  0,  -1,  -10,  -27,  -35
498782, 1710333730, "2024/3/13 12:42:10",  4,  -54,  1007,  0,  0,  -1,  -13,  -26,  -36
498982, 1710333730, "2024/3/13 12:42:10",  6,  -55,  1003,  0,  0,  -1,  -9,  -27,  -36
499182, 1710333730, "2024/3/13 12:42:10",  3,  -49,  1002,  0,  -1,  0,  -11,  -25,  -35
499382, 1710333730, "2024/3/13 12:42:10",  8,  -61,  1004,  0,  0,  -1,  -10,  -27,  -35
499582, 1710333730, "2024/3/13 12:42:10",  9,  -59,  1001,  0,  0,  -1,  -11,  -26,  -35
499782, 1710333731, "2024/3/13 12:42:11",  3,  -59,  1004,  0,  0,  0,  -11,  -25,  -36
499982, 1710333731, "2024/3/13 12:42:11",  4,  -56,  1002,  0,  0,  -1,  -11,  -27,  -37
500182, 1710333731, "2024/3/13 12:42:11",  0,  -58,  1004,  0,  -1,  -1,  -12,  -27,  -36
500382, 1710333731, "2024/3/13 12:42:11",  5,  -52,  1006,  0,  -1,  -1,  -11,  -26,  -37
500582, 1710333731, "2024/3/13 12:42:11",  3,  -58,  1006,  0,  -1,  0,  -12,  -26,  -36
500782, 1710333732, "2024/3/13 12:42:12",  3,  -56,  1000,  0,  0,  -1,  -12,  -26,  -37
500982, 1710333732, "2024/3/13 12:42:12",  3,  -61,  1003,  0,  -1,  -1,  -11,  -26,  -37
501182, 1710333732, "2024/3/13 12:42:12",  11,  -56,  1001,  0,  0,  -1,  -11,  -26,  -37
501382, 1710333732, "2024/3/13 12:42:12",  9,  -61,  1005,  0,  0,  -1,  -12,  -26,  -35
501582, 1710333732, "2024/3/13 12:42:12",  5,  -58,  1002,  0,  0,  -1,  -11,  -25,  -36
501782, 1710333733, "2024/3/13 12:42:13",  9,  -61,  1005,  0,  0,  0,  -12,  -25,  -36
501982, 1710333733, "2024/3/13 12:42:13",  7,  -64,  1006,  0,  -1,  -1,  -13,  -26,  -36
502182, 1710333733, "2024/3/13 12:42:13",  6,  -56,  1006,  0,  0,  -1,  -11,  -26,  -36
502382, 1710333733, "2024/3/13 12:42:13",  9,  -55,  1004,  0,  0,  -1,  -11,  -26,  -36
502582, 1710333733, "2024/3/13 12:42:13",  11,  -55,  1007,  0,  0,  -1,  -11,  -26,  -35
502782, 1710333734, "2024/3/13 12:42:14",  6,  -57,  1005,  0,  0,  -1,  -11,  -27,  -36
502982, 1710333734, "2024/3/13 12:42:14",  7,  -59,  1005,  0,  -1,  -1,  -12,  -26,  -34
503182, 1710333734, "2024/3/13 12:42:14",  7,  -53,  1003,  0,  -1,  -1,  -10,  -27,  -36
503382, 1710333734, "2024/3/13 12:42:14",  12,  -63,  1006,  0,  0,  -1,  -12,  -26,  -35
503582, 1710333734, "2024/3/13 12:42:14",  9,  -56,  1003,  0,  0,  -1,  -10,  -26,  -35
503782, 1710333735, "2024/3/13 12:42:15",  12,  -50,  1002,  0,  0,  0,  -11,  -25,  -36
503982, 1710333735, "2024/3/13 12:42:15",  4,  -58,  1001,  0,  -1,  0,  -12,  -26,  -36
504182, 1710333735, "2024/3/13 12:42:15",  7,  -62,  1009,  0,  0,  0,  -12,  -25,  -35
504382, 1710333735, "2024/3/13 12:42:15",  4,  -57,  1007,  0,  0,  0,  -12,  -26,  -37
504582, 1710333735, "2024/3/13 12:42:15",  3,  -57,  1007,  0,  0,  0,  -9,  -26,  -38
504782, 1710333736, "2024/3/13 12:42:16",  5,  -60,  1002,  0,  0,  -1,  -12,  -26,  -36
504982, 1710333736, "2024/3/13 12:42:16",  5,  -55,  1005,  0,  0,  0,  -11,  -26,  -37
505182, 1710333736, "2024/3/13 12:42:16",  5,  -54,  1006,  0,  0,  0,  -11,  -25,  -36
505382, 1710333736, "2024/3/13 12:42:16",  4,  -58,  1004,  0,  0,  0,  -12,  -25,  -36
505582, 1710333736, "2024/3/13 12:42:16",  4,  -60,  1002,  0,  0,  0,  -11,  -25,  -36
505782, 1710333737, "2024/3/13 12:42:17",  3,  -55,  1001,  0,  0,  0,  -11,  -26,  -36
505982, 1710333737, "2024/3/13 12:42:17",  10,  -61,  1004,  0,  0,  -1,  -11,  -26,  -37
506182, 1710333737, "2024/3/13 12:42:17",  3,  -58,  1006,  0,  0,  -1,  -11,  -27,  -37
506382, 1710333737, "2024/3/13 12:42:17",  8,  -62,  1002,  0,  0,  0,  -11,  -24,  -35
506582, 1710333737, "2024/3/13 12:42:17",  9,  -61,  1007,  0,  0,  0,  -11,  -26,  -37
506782, 1710333738, "2024/3/13 12:42:18",  3,  -54,  1004,  0,  0,  -1,  -10,  -25,  -36
506982, 1710333738, "2024/3/13 12:42:18",  4,  -55,  1001,  0,  0,  0,  -12,  -26,  -34
507182, 1710333738, "2024/3/13 12:42:18",  4,  -55,  1006,  0,  0,  -1,  -10,  -27,  -37
507382, 1710333738, "2024/3/13 12:42:18",  4,  -60,  1005,  0,  -1,  -1,  -11,  -26,  -37
507582, 1710333738, "2024/3/13 12:42:18",  9,  -57,  1004,  0,  0,  -1,  -10,  -25,  -36
507782, 1710333739, "2024/3/13 12:42:19",  7,  -60,  1005,  0,  0,  0,  -12,  -28,  -35
507982, 1710333739, "2024/3/13 12:42:19",  5,  -61,  1004,  0,  0,  -1,  -12,  -25,  -35
508182, 1710333739, "2024/3/13 12:42:19",  7,  -54,  1004,  0,  -1,  0,  -12,  -27,  -35
508382, 1710333739, "2024/3/13 12:42:19",  3,  -62,  1003,  0,  0,  0,  -10,  -26,  -36
508582, 1710333739, "2024/3/13 12:42:19",  1,  -62,  1000,  0,  0,  0,  -11,  -27,  -36
508782, 1710333740, "2024/3/13 12:42:20",  9,  -59,  1006,  0,  0,  0,  -12,  -27,  -36
508982, 1710333740, "2024/3/13 12:42:20",  5,  -57,  998,  0,  -1,  0,  -10,  -28,  -35
509182, 1710333740, "2024/3/13 12:42:20",  9,  -63,  1002,  0,  -1,  -1,  -12,  -27,  -36
509382, 1710333740, "2024/3/13 12:42:20",  4,  -61,  1008,  0,  0,  -1,  -12,  -26,  -36
509582, 1710333740, "2024/3/13 12:42:20",  6,  -58,  1003,  0,  0,  0,  -11,  -27,  -36
509782, 1710333741, "2024/3/13 12:42:21",  5,  -68,  1006,  0,  0,  -1,  -13,  -25,  -36
509982, 1710333741, "2024/3/13 12:42:21",  13,  -29,  1003,  0,  0,  -1,  -13,  -26,  -36
510182, 1710333741, "2024/3/13 12:42:21",  11,  -52,  1003,  0,  0,  0,  -10,  -26,  -34
510382, 1710333741, "2024/3/13 12:42:21",  8,  -53,  1000,  0,  0,  -1,  -13,  -25,  -35
510582, 1710333741, "2024/3/13 12:42:21",  6,  -61,  1004,  0,  0,  0,  -12,  -25,  -36
510782, 1710333742, "2024/3/13 12:42:22",  2,  -57,  1001,  0,  -1,  -1,  -11,  -25,  -36
510982, 1710333742, "2024/3/13 12:42:22",  4,  -57,  1005,  0,  -1,  -1,  -11,  -27,  -36
511182, 1710333742, "2024/3/13 12:42:22",  1,  -62,  1005,  0,  0,  -1,  -11,  -25,  -36
511382, 1710333742, "2024/3/13 12:42:22",  11,  -57,  1001,  0,  0,  -1,  -11,  -27,  -36
511582, 1710333742, "2024/3/13 12:42:22",  4,  -52,  1002,  0,  0,  -1,  -10,  -26,  -36
511782, 1710333743, "2024/3/13 12:42:23",  -10,  -67,  981,  0,  -1,  0,  -11,  -26,  -35
511982, 1710333743, "2024/3/13 12:42:23",  7,  -71,  1006,  0,  0,  0,  -11,  -26,  -36
512182, 1710333743, "2024/3/13 12:42:23",  -2,  -56,  1006,  0,  -1,  -1,  -11,  -27,  -36
512382, 1710333743, "2024/3/13 12:42:23",  -1,  -51,  1000,  0,  0,  -1,  -10,  -27,  -37
512582, 1710333743, "2024/3/13 12:42:23",  4,  -59,  1004,  0,  0,  0,  -12,  -26,  -35
512782, 1710333744, "2024/3/13 12:42:24",  -1,  -59,  1003,  0,  0,  -1,  -11,  -26,  -34
512982, 1710333744, "2024/3/13 12:42:24",  6,  -59,  1003,  0,  0,  -1,  -11,  -26,  -36
513182, 1710333744, "2024/3/13 12:42:24",  8,  -61,  1006,  0,  0,  0,  -12,  -26,  -37
513382, 1710333744, "2024/3/13 12:42:24",  5,  -56,  1002,  0,  0,  0,  -11,  -27,  -36
513582, 1710333744, "2024/3/13 12:42:24",  0,  -53,  1005,  0,  0,  -1,  -12,  -25,  -37
513782, 1710333745, "2024/3/13 12:42:25",  7,  -60,  1006,  0,  0,  -1,  -12,  -26,  -36
513982, 1710333745, "2024/3/13 12:42:25",  0,  -58,  1002,  0,  0,  -1,  -11,  -27,  -36
514182, 1710333745, "2024/3/13 12:42:25",  5,  -53,  1003,  0,  0,  -1,  -12,  -25,  -36
514382, 1710333745, "2024/3/13 12:42:25",  3,  -57,  1005,  0,  0,  0,  -13,  -28,  -37
514582, 1710333745, "2024/3/13 12:42:25",  7,  -51,  1006,  0,  -1,  0,  -11,  -26,  -36
514782, 1710333746, "2024/3/13 12:42:26",  7,  -62,  1004,  0,  0,  0,  -11,  -25,  -36
514982, 1710333746, "2024/3/13 12:42:26",  4,  -66,  1005,  0,  0,  0,  -12,  -26,  -37
515182, 1710333746, "2024/3/13 12:42:26",  11,  -62,  1003,  0,  0,  -1,  -12,  -25,  -36
515382, 1710333746, "2024/3/13 12:42:26",  2,  -60,  1002,  0,  -1,  -1,  -11,  -27,  -37
515582, 1710333746, "2024/3/13 12:42:26",  6,  -56,  1004,  0,  0,  -1,  -11,  -27,  -37
515782, 1710333747, "2024/3/13 12:42:27",  9,  -58,  1003,  0,  0,  -1,  -11,  -26,  -36
515982, 1710333747, "2024/3/13 12:42:27",  8,  -58,  1005,  0,  0,  0,  -12,  -26,  -37
516182, 1710333747, "2024/3/13 12:42:27",  8,  -58,  1003,  0,  0,  -1,  -12,  -26,  -37
516382, 1710333747, "2024/3/13 12:42:27",  2,  -54,  1004,  0,  0,  0,  -12,  -26,  -37
516582, 1710333747, "2024/3/13 12:42:27",  4,  -60,  1003,  0,  0,  -1,  -12,  -25,  -37
516782, 1710333748, "2024/3/13 12:42:28",  3,  -55,  1001,  0,  0,  -1,  -11,  -26,  -36
516982, 1710333748, "2024/3/13 12:42:28",  5,  -60,  1006,  0,  0,  -1,  -11,  -26,  -35
517182, 1710333748, "2024/3/13 12:42:28",  8,  -65,  1006,  0,  -1,  -1,  -10,  -26,  -35
517382, 1710333748, "2024/3/13 12:42:28",  7,  -58,  1002,  0,  0,  -1,  -10,  -27,  -37
517582, 1710333748, "2024/3/13 12:42:28",  3,  -61,  1003,  0,  0,  0,  -11,  -28,  -37
517782, 1710333749, "2024/3/13 12:42:29",  8,  -59,  1007,  0,  0,  -1,  -11,  -27,  -37
517982, 1710333749, "2024/3/13 12:42:29",  4,  -58,  1006,  0,  0,  -1,  -12,  -26,  -37
518182, 1710333749, "2024/3/13 12:42:29",  3,  -63,  1004,  0,  0,  -1,  -10,  -26,  -37
518382, 1710333749, "2024/3/13 12:42:29",  5,  -59,  1003,  0,  0,  -1,  -9,  -27,  -36
518582, 1710333749, "2024/3/13 12:42:29",  6,  -61,  1000,  0,  0,  0,  -11,  -26,  -36
518782, 1710333750, "2024/3/13 12:42:30",  0,  -61,  1001,  0,  0,  0,  -10,  -26,  -35
518982, 1710333750, "2024/3/13 12:42:30",  4,  -55,  1005,  0,  0,  0,  -10,  -25,  -35
519182, 1710333750, "2024/3/13 12:42:30",  7,  -54,  1004,  0,  -1,  -1,  -11,  -26,  -35
519382, 1710333750, "2024/3/13 12:42:30",  4,  -51,  1002,  0,  -1,  -1,  -9,  -27,  -36
519582, 1710333750, "2024/3/13 12:42:30",  4,  -62,  1000,  0,  0,  -1,  -12,  -25,  -37
519782, 1710333751, "2024/3/13 12:42:31",  6,  -54,  1005,  0,  0,  0,  -12,  -27,  -37
519982, 1710333751, "2024/3/13 12:42:31",  7,  -59,  1002,  0,  0,  0,  -12,  -25,  -35
520182, 1710333751, "2024/3/13 12:42:31",  7,  -61,  1006,  0,  0,  0,  -11,  -26,  -37
520382, 1710333751, "2024/3/13 12:42:31",  6,  -62,  1002,  0,  0,  -1,  -11,  -26,  -37
520582, 1710333751, "2024/3/13 12:42:31",  7,  -59,  1000,  0,  -1,  -1,  -11,  -26,  -37
520782, 1710333752, "2024/3/13 12:42:32",  5,  -59,  1010,  0,  0,  -1,  -11,  -25,  -36
520982, 1710333752, "2024/3/13 12:42:32",  7,  -64,  1006,  0,  0,  0,  -10,  -26,  -38
521182, 1710333752, "2024/3/13 12:42:32",  7,  -53,  1004,  0,  0,  -1,  -12,  -26,  -36
521382, 1710333752, "2024/3/13 12:42:32",  5,  -59,  1003,  0,  0,  -1,  -12,  -26,  -36
521582, 1710333752, "2024/3/13 12:42:32",  5,  -55,  1006,  0,  0,  -1,  -12,  -28,  -36
521782, 1710333753, "2024/3/13 12:42:33",  6,  -57,  1003,  0,  0,  -1,  -12,  -27,  -37
521982, 1710333753, "2024/3/13 12:42:33",  6,  -55,  1003,  0,  0,  -1,  -11,  -26,  -37
522182, 1710333753, "2024/3/13 12:42:33",  3,  -64,  999,  0,  -1,  -1,  -13,  -25,  -37
522382, 1710333753, "2024/3/13 12:42:33",  8,  -58,  1006,  0,  0,  0,  -11,  -27,  -36
522582, 1710333753, "2024/3/13 12:42:33",  6,  -59,  1011,  0,  0,  0,  -11,  -25,  -36
522782, 1710333754, "2024/3/13 12:42:34",  3,  -55,  1003,  0,  0,  -1,  -11,  -25,  -35
522982, 1710333754, "2024/3/13 12:42:34",  5,  -58,  1008,  0,  -1,  -1,  -11,  -25,  -35
523182, 1710333754, "2024/3/13 12:42:34",  6,  -56,  1004,  0,  -1,  -1,  -9,  -27,  -37
523382, 1710333754, "2024/3/13 12:42:34",  4,  -58,  1003,  0,  0,  -1,  -10,  -26,  -37
523582, 1710333754, "2024/3/13 12:42:34",  2,  -63,  1005,  0,  0,  -1,  -12,  -27,  -36
523782, 1710333755, "2024/3/13 12:42:35",  4,  -61,  1001,  0,  0,  0,  -11,  -27,  -36
523982, 1710333755, "2024/3/13 12:42:35",  3,  -60,  1005,  0,  -1,  -1,  -11,  -27,  -36
524182, 1710333755, "2024/3/13 12:42:35",  4,  -59,  1005,  0,  0,  -1,  -12,  -25,  -36
524382, 1710333755, "2024/3/13 12:42:35",  2,  -55,  1000,  0,  -1,  -1,  -12,  -28,  -36
524582, 1710333755, "2024/3/13 12:42:35",  5,  -59,  1005,  0,  -1,  -1,  -13,  -27,  -35
524782, 1710333756, "2024/3/13 12:42:36",  3,  -55,  1006,  0,  0,  -1,  -10,  -27,  -36
524982, 1710333756, "2024/3/13 12:42:36",  5,  -55,  1003,  0,  0,  -1,  -13,  -27,  -36
525182, 1710333756, "2024/3/13 12:42:36",  -1,  -60,  1004,  0,  0,  0,  -12,  -26,  -37
525382, 1710333756, "2024/3/13 12:42:36",  4,  -60,  1005,  0,  0,  -1,  -11,  -27,  -35
525582, 1710333756, "2024/3/13 12:42:36",  7,  -59,  1007,  0,  0,  -1,  -11,  -25,  -37
525782, 1710333757, "2024/3/13 12:42:37",  5,  -59,  1002,  0,  0,  -1,  -12,  -26,  -35
525982, 1710333757, "2024/3/13 12:42:37",  4,  -57,  1005,  0,  0,  -1,  -13,  -26,  -36
526182, 1710333757, "2024/3/13 12:42:37",  5,  -57,  1004,  0,  0,  -1,  -11,  -28,  -37
526382, 1710333757, "2024/3/13 12:42:37",  4,  -59,  1005,  0,  -1,  0,  -12,  -27,  -37
526582, 1710333757, "2024/3/13 12:42:37",  6,  -64,  1007,  0,  0,  0,  -12,  -26,  -36
526782, 1710333758, "2024/3/13 12:42:38",  3,  -59,  1007,  0,  0,  0,  -11,  -26,  -37
526982, 1710333758, "2024/3/13 12:42:38",  12,  -60,  1002,  0,  0,  -1,  -11,  -27,  -37
527182, 1710333758, "2024/3/13 12:42:38",  3,  -54,  1005,  0,  0,  0,  -11,  -25,  -38
527382, 1710333758, "2024/3/13 12:42:38",  8,  -62,  1007,  0,  0,  0,  -12,  -27,  -37
527582, 1710333758, "2024/3/13 12:42:38",  5,  -54,  1003,  0,  0,  -1,  -11,  -25,  -36
527782, 1710333759, "2024/3/13 12:42:39",  0,  -57,  1000,  0,  -1,  0,  -12,  -25,  -37
527982, 1710333759, "2024/3/13 12:42:39",  5,  -58,  1005,  0,  0,  0,  -11,  -26,  -37
528182, 1710333759, "2024/3/13 12:42:39",  6,  -59,  1002,  0,  0,  0,  -12,  -27,  -37
528382, 1710333759, "2024/3/13 12:42:39",  9,  -56,  1006,  0,  0,  -1,  -12,  -26,  -36
528582, 1710333759, "2024/3/13 12:42:39",  5,  -55,  1004,  0,  0,  0,  -11,  -25,  -36
528782, 1710333760, "2024/3/13 12:42:40",  7,  -56,  1005,  0,  -1,  -1,  -13,  -27,  -36
528982, 1710333760, "2024/3/13 12:42:40",  3,  -56,  1008,  0,  0,  -1,  -11,  -26,  -35
529182, 1710333760, "2024/3/13 12:42:40",  6,  -58,  1005,  0,  0,  -1,  -11,  -26,  -36
529382, 1710333760, "2024/3/13 12:42:40",  6,  -59,  1007,  0,  0,  0,  -12,  -27,  -36
529582, 1710333760, "2024/3/13 12:42:40",  3,  -58,  1001,  0,  0,  -1,  -11,  -28,  -36
529782, 1710333761, "2024/3/13 12:42:41",  4,  -58,  1003,  0,  0,  -1,  -11,  -25,  -36
529982, 1710333761, "2024/3/13 12:42:41",  6,  -64,  1005,  0,  0,  -1,  -12,  -25,  -37
530182, 1710333761, "2024/3/13 12:42:41",  5,  -60,  1003,  0,  0,  -1,  -11,  -25,  -37
530382, 1710333761, "2024/3/13 12:42:41",  4,  -60,  1005,  0,  0,  -1,  -11,  -26,  -37
530582, 1710333761, "2024/3/13 12:42:41",  6,  -56,  1005,  0,  0,  -1,  -11,  -26,  -36
530782, 1710333762, "2024/3/13 12:42:42",  0,  -56,  1007,  0,  0,  -1,  -10,  -27,  -35
530982, 1710333762, "2024/3/13 12:42:42",  6,  -61,  1004,  0,  0,  -1,  -11,  -27,  -36
531182, 1710333762, "2024/3/13 12:42:42",  7,  -58,  1005,  0,  0,  0,  -11,  -27,  -36
531382, 1710333762, "2024/3/13 12:42:42",  3,  -55,  1003,  0,  -1,  0,  -11,  -25,  -37
531582, 1710333762, "2024/3/13 12:42:42",  3,  -55,  1007,  0,  0,  0,  -10,  -26,  -37
531782, 1710333763, "2024/3/13 12:42:43",  9,  -58,  1002,  0,  0,  -1,  -11,  -25,  -37
531982, 1710333763, "2024/3/13 12:42:43",  5,  -62,  1004,  0,  0,  -1,  -11,  -26,  -37
532182, 1710333763, "2024/3/13 12:42:43",  8,  -60,  1004,  0,  0,  -1,  -11,  -25,  -36
532382, 1710333763, "2024/3/13 12:42:43",  4,  -57,  1003,  0,  0,  0,  -12,  -25,  -37
532582, 1710333763, "2024/3/13 12:42:43",  3,  -59,  1007,  0,  0,  -1,  -11,  -26,  -35
532782, 1710333764, "2024/3/13 12:42:44",  5,  -58,  1006,  0,  0,  -1,  -13,  -27,  -36
532982, 1710333764, "2024/3/13 12:42:44",  1,  -58,  1004,  0,  0,  -1,  -11,  -26,  -38
533182, 1710333764, "2024/3/13 12:42:44",  0,  -58,  1004,  0,  0,  0,  -12,  -26,  -35
533382, 1710333764, "2024/3/13 12:42:44",  5,  -59,  1004,  0,  0,  -1,  -11,  -25,  -37
533582, 1710333764, "2024/3/13 12:42:44",  6,  -57,  1003,  0,  0,  0,  -11,  -26,  -37
533782, 1710333765, "2024/3/13 12:42:45",  5,  -56,  999,  0,  0,  -1,  -11,  -26,  -37
533982, 1710333765, "2024/3/13 12:42:45",  8,  -62,  1004,  0,  0,  -1,  -11,  -26,  -36
534182, 1710333765, "2024/3/13 12:42:45",  3,  -59,  1000,  0,  0,  -1,  -12,  -27,  -34
534382, 1710333765, "2024/3/13 12:42:45",  6,  -60,  1003,  0,  0,  0,  -12,  -27,  -39
534582, 1710333765, "2024/3/13 12:42:45",  6,  -56,  1004,  0,  0,  -1,  -11,  -26,  -37
534782, 1710333766, "2024/3/13 12:42:46",  7,  -56,  1003,  0,  0,  -1,  -11,  -26,  -36
534982, 1710333766, "2024/3/13 12:42:46",  8,  -61,  1006,  0,  0,  0,  -11,  -25,  -37
535182, 1710333766, "2024/3/13 12:42:46",  8,  -60,  1004,  0,  0,  -1,  -11,  -26,  -36
535382, 1710333766, "2024/3/13 12:42:46",  5,  -53,  1002,  1,  0,  -1,  -12,  -26,  -36
535582, 1710333766, "2024/3/13 12:42:46",  4,  -61,  1007,  0,  0,  -1,  -12,  -26,  -36
535782, 1710333767, "2024/3/13 12:42:47",  3,  -58,  1002,  0,  -1,  0,  -12,  -27,  -35
535982, 1710333767, "2024/3/13 12:42:47",  4,  -54,  1008,  0,  0,  -1,  -12,  -26,  -36
536182, 1710333767, "2024/3/13 12:42:47",  2,  -51,  1006,  0,  0,  0,  -12,  -26,  -37
536382, 1710333767, "2024/3/13 12:42:47",  6,  -59,  1000,  0,  0,  -1,  -12,  -26,  -37
536582, 1710333767, "2024/3/13 12:42:47",  5,  -60,  1005,  0,  0,  0,  -11,  -26,  -36
536782, 1710333768, "2024/3/13 12:42:48",  9,  -62,  1007,  0,  0,  0,  -12,  -27,  -36
536982, 1710333768, "2024/3/13 12:42:48",  10,  -57,  1002,  0,  0,  -1,  -11,  -25,  -37
537182, 1710333768, "2024/3/13 12:42:48",  2,  -59,  1003,  0,  0,  -1,  -12,  -25,  -37
537382, 1710333768, "2024/3/13 12:42:48",  9,  -57,  1001,  0,  0,  -1,  -11,  -26,  -36
537582, 1710333768, "2024/3/13 12:42:48",  5,  -58,  1006,  0,  0,  0,  -11,  -25,  -36
537782, 1710333769, "2024/3/13 12:42:49",  6,  -55,  1007,  0,  0,  -1,  -13,  -25,  -36
537982, 1710333769, "2024/3/13 12:42:49",  6,  -58,  1001,  0,  0,  -1,  -10,  -25,  -36
538182, 1710333769, "2024/3/13 12:42:49",  0,  -60,  1001,  0,  0,  0,  -12,  -27,  -36
538382, 1710333769, "2024/3/13 12:42:49",  2,  -60,  1005,  0,  0,  -1,  -11,  -25,  -36
538582, 1710333769, "2024/3/13 12:42:49",  5,  -55,  1005,  0,  -1,  -1,  -11,  -25,  -36
538782, 1710333770, "2024/3/13 12:42:50",  6,  -58,  1003,  0,  0,  -1,  -11,  -26,  -35
538982, 1710333770, "2024/3/13 12:42:50",  2,  -57,  999,  0,  -1,  -1,  -11,  -27,  -36
539182, 1710333770, "2024/3/13 12:42:50",  5,  -57,  1005,  0,  -1,  -1,  -11,  -25,  -37
539382, 1710333770, "2024/3/13 12:42:50",  2,  -53,  1003,  0,  -1,  -1,  -13,  -27,  -36
539582, 1710333770, "2024/3/13 12:42:50",  0,  -60,  1005,  0,  0,  0,  -12,  -27,  -38
539782, 1710333771, "2024/3/13 12:42:51",  8,  -57,  1004,  0,  0,  -1,  -12,  -26,  -37
539982, 1710333771, "2024/3/13 12:42:51",  2,  -55,  1002,  0,  0,  -1,  -11,  -26,  -36
540182, 1710333771, "2024/3/13 12:42:51",  6,  -56,  1003,  0,  0,  0,  -11,  -26,  -37
540382, 1710333771, "2024/3/13 12:42:51",  3,  -56,  1002,  0,  0,  0,  -11,  -27,  -37
540582, 1710333771, "2024/3/13 12:42:51",  0,  -55,  1008,  0,  0,  -1,  -10,  -28,  -36
540782, 1710333772, "2024/3/13 12:42:52",  1,  -50,  1004,  0,  0,  -1,  -11,  -24,  -37
540982, 1710333772, "2024/3/13 12:42:52",  2,  -54,  1005,  0,  0,  0,  -12,  -26,  -38
541182, 1710333772, "2024/3/13 12:42:52",  3,  -59,  1003,  0,  -1,  -1,  -11,  -26,  -37
541382, 1710333772, "2024/3/13 12:42:52",  7,  -62,  1002,  0,  -1,  0,  -11,  -26,  -35
541582, 1710333772, "2024/3/13 12:42:52",  1,  -58,  1005,  0,  -1,  0,  -12,  -25,  -36
541782, 1710333773, "2024/3/13 12:42:53",  0,  -56,  1002,  0,  -1,  0,  -11,  -25,  -37
541982, 1710333773, "2024/3/13 12:42:53",  3,  -61,  1006,  0,  0,  -1,  -12,  -26,  -36
542182, 1710333773, "2024/3/13 12:42:53",  5,  -55,  1006,  0,  0,  -1,  -12,  -26,  -36
542382, 1710333773, "2024/3/13 12:42:53",  2,  -57,  1003,  0,  0,  0,  -13,  -27,  -36
542582, 1710333773, "2024/3/13 12:42:53",  7,  -62,  1003,  0,  0,  0,  -11,  -25,  -37
542782, 1710333774, "2024/3/13 12:42:54",  1,  -56,  1002,  0,  0,  -1,  -12,  -27,  -36
542982, 1710333774, "2024/3/13 12:42:54",  5,  -55,  1005,  0,  0,  -1,  -12,  -25,  -37
543182, 1710333774, "2024/3/13 12:42:54",  5,  -57,  1000,  0,  -1,  0,  -13,  -25,  -35
543382, 1710333774, "2024/3/13 12:42:54",  3,  -49,  1003,  0,  0,  -1,  -11,  -26,  -38
543582, 1710333774, "2024/3/13 12:42:54",  7,  -60,  1001,  0,  0,  -1,  -12,  -26,  -36
543782, 1710333775, "2024/3/13 12:42:55",  4,  -56,  1001,  0,  0,  0,  -11,  -26,  -37
543982, 1710333775, "2024/3/13 12:42:55",  4,  -51,  1006,  0,  0,  -1,  -12,  -27,  -37
544182, 1710333775, "2024/3/13 12:42:55",  0,  -58,  1007,  0,  0,  0,  -12,  -25,  -36
544382, 1710333775, "2024/3/13 12:42:55",  3,  -56,  1001,  0,  0,  -1,  -12,  -27,  -36
544582, 1710333775, "2024/3/13 12:42:55",  6,  -57,  1002,  0,  0,  0,  -11,  -27,  -35
544782, 1710333776, "2024/3/13 12:42:56",  4,  -57,  1003,  0,  0,  0,  -13,  -26,  -38
544982, 1710333776, "2024/3/13 12:42:56",  3,  -59,  1004,  0,  0,  -1,  -12,  -26,  -37
545182, 1710333776, "2024/3/13 12:42:56",  9,  -61,  1004,  0,  0,  -1,  -12,  -27,  -37
545382, 1710333776, "2024/3/13 12:42:56",  1,  -59,  1005,  0,  0,  -1,  -12,  -27,  -36
545582, 1710333776, "2024/3/13 12:42:56",  4,  -60,  1007,  0,  0,  0,  -11,  -27,  -37
545782, 1710333777, "2024/3/13 12:42:57",  8,  -58,  1006,  0,  0,  -1,  -11,  -26,  -37
545982, 1710333777, "2024/3/13 12:42:57",  0,  -58,  1006,  0,  0,  -1,  -11,  -26,  -37
546182, 1710333777, "2024/3/13 12:42:57",  5,  -61,  1006,  0,  0,  0,  -10,  -25,  -37
546382, 1710333777, "2024/3/13 12:42:57",  0,  -59,  1005,  0,  0,  0,  -13,  -26,  -36
546582, 1710333777, "2024/3/13 12:42:57",  3,  -61,  1003,  0,  0,  0,  -13,  -25,  -36
546782, 1710333778, "2024/3/13 12:42:58",  4,  -63,  1003,  0,  0,  -1,  -13,  -24,  -37
546982, 1710333778, "2024/3/13 12:42:58",  5,  -56,  1005,  0,  0,  -1,  -13,  -26,  -36
547182, 1710333778, "2024/3/13 12:42:58",  3,  -58,  1003,  0,  0,  0,  -11,  -27,  -36
547382, 1710333778, "2024/3/13 12:42:58",  1,  -57,  1005,  0,  0,  -1,  -11,  -24,  -37
547582, 1710333778, "2024/3/13 12:42:58",  4,  -53,  1006,  0,  -1,  0,  -12,  -24,  -36
547782, 1710333779, "2024/3/13 12:42:59",  2,  -56,  1003,  0,  0,  0,  -10,  -26,  -36
547982, 1710333779, "2024/3/13 12:42:59",  4,  -58,  1003,  0,  0,  -1,  -11,  -26,  -35
548182, 1710333779, "2024/3/13 12:42:59",  2,  -55,  1004,  0,  -1,  -1,  -14,  -27,  -36
548382, 1710333779, "2024/3/13 12:42:59",  5,  -58,  1006,  0,  -1,  0,  -12,  -25,  -37
548582, 1710333779, "2024/3/13 12:42:59",  8,  -57,  1005,  0,  0,  -1,  -12,  -24,  -36
548782, 1710333780, "2024/3/13 12:43:0",  5,  -58,  1004,  0,  -1,  -1,  -13,  -26,  -36
548982, 1710333780, "2024/3/13 12:43:0",  4,  -58,  1007,  0,  0,  -1,  -11,  -26,  -36
549182, 1710333780, "2024/3/13 12:43:0",  4,  -51,  1005,  0,  0,  0,  -11,  -28,  -37
549382, 1710333780, "2024/3/13 12:43:0",  6,  -60,  1004,  0,  0,  0,  -11,  -26,  -37
549582, 1710333780, "2024/3/13 12:43:0",  2,  -60,  1005,  0,  0,  -1,  -12,  -25,  -34
549782, 1710333781, "2024/3/13 12:43:1",  7,  -51,  1003,  0,  0,  -1,  -12,  -26,  -36
