millis,stamp,datetime,accX,accY,accZ,gyroX,gyroY,gyroZ,compX,compY,compZ
2406292, 1710335638, "2024/3/13 13:13:58",  5,  -63,  1002,  0,  0,  -1,  -9,  -26,  -39
2406492, 1710335638, "2024/3/13 13:13:58",  6,  -61,  999,  0,  0,  -1,  -11,  -26,  -40
2406692, 1710335639, "2024/3/13 13:13:59",  2,  -60,  1004,  0,  0,  -1,  -11,  -25,  -41
2406892, 1710335639, "2024/3/13 13:13:59",  4,  -59,  1006,  0,  0,  0,  -10,  -26,  -40
2407092, 1710335639, "2024/3/13 13:13:59",  4,  -52,  1005,  0,  0,  -1,  -10,  -28,  -41
2407292, 1710335639, "2024/3/13 13:13:59",  6,  -60,  1000,  0,  0,  -1,  -10,  -26,  -39
2407492, 1710335639, "2024/3/13 13:13:59",  5,  -55,  1007,  0,  0,  -1,  -10,  -26,  -41
2407692, 1710335640, "2024/3/13 13:14:0",  2,  -54,  1001,  0,  0,  0,  -12,  -27,  -40
2407892, 1710335640, "2024/3/13 13:14:0",  3,  -57,  1003,  0,  0,  -1,  -10,  -27,  -39
2408092, 1710335640, "2024/3/13 13:14:0",  9,  -57,  1004,  0,  0,  0,  -10,  -26,  -39
2408292, 1710335640, "2024/3/13 13:14:0",  5,  -54,  1004,  0,  0,  0,  -11,  -27,  -39
2408492, 1710335640, "2024/3/13 13:14:0",  3,  -64,  1003,  0,  0,  -1,  -9,  -27,  -40
2408692, 1710335641, "2024/3/13 13:14:1",  4,  -51,  1000,  0,  0,  -1,  -10,  -28,  -38
2408892, 1710335641, "2024/3/13 13:14:1",  4,  -57,  1005,  0,  0,  0,  -11,  -25,  -40
2409092, 1710335641, "2024/3/13 13:14:1",  7,  -57,  1005,  0,  0,  0,  -10,  -27,  -41
2409292, 1710335641, "2024/3/13 13:14:1",  9,  -54,  1003,  0,  0,  -1,  -10,  -27,  -40
2409492, 1710335641, "2024/3/13 13:14:1",  7,  -58,  1003,  0,  0,  -1,  -10,  -27,  -39
2409692, 1710335642, "2024/3/13 13:14:2",  5,  -58,  1002,  0,  0,  -1,  -10,  -26,  -40
2409892, 1710335642, "2024/3/13 13:14:2",  4,  -58,  1003,  0,  0,  -1,  -10,  -26,  -40
2410092, 1710335642, "2024/3/13 13:14:2",  4,  -57,  1003,  0,  0,  0,  -10,  -26,  -40
2410292, 1710335642, "2024/3/13 13:14:2",  7,  -54,  1001,  0,  0,  0,  -11,  -25,  -40
2410492, 1710335642, "2024/3/13 13:14:2",  4,  -59,  1004,  0,  0,  0,  -11,  -27,  -40
2410692, 1710335643, "2024/3/13 13:14:3",  7,  -58,  1002,  0,  0,  -1,  -11,  -27,  -41
2410892, 1710335643, "2024/3/13 13:14:3",  7,  -55,  1001,  0,  0,  0,  -11,  -27,  -40
2411092, 1710335643, "2024/3/13 13:14:3",  2,  -60,  1005,  0,  0,  -1,  -10,  -28,  -40
2411292, 1710335643, "2024/3/13 13:14:3",  2,  -58,  1004,  0,  0,  -1,  -10,  -26,  -39
2411492, 1710335643, "2024/3/13 13:14:3",  8,  -60,  1006,  0,  0,  0,  -10,  -25,  -40
2411692, 1710335644, "2024/3/13 13:14:4",  -1,  -61,  1005,  0,  0,  -1,  -10,  -27,  -42
2411892, 1710335644, "2024/3/13 13:14:4",  4,  -55,  1002,  0,  0,  -1,  -11,  -24,  -40
2412092, 1710335644, "2024/3/13 13:14:4",  3,  -64,  1003,  0,  0,  0,  -9,  -26,  -40
2412292, 1710335644, "2024/3/13 13:14:4",  3,  -55,  1002,  0,  0,  -1,  -9,  -26,  -40
2412492, 1710335644, "2024/3/13 13:14:4",  4,  -57,  1004,  0,  0,  -1,  -9,  -26,  -40
2412692, 1710335645, "2024/3/13 13:14:5",  7,  -55,  1005,  0,  0,  -1,  -11,  -27,  -40
2412892, 1710335645, "2024/3/13 13:14:5",  2,  -58,  1005,  0,  0,  0,  -11,  -27,  -39
2413092, 1710335645, "2024/3/13 13:14:5",  2,  -57,  1003,  0,  0,  -1,  -9,  -26,  -41
2413292, 1710335645, "2024/3/13 13:14:5",  1,  -55,  1005,  0,  0,  0,  -10,  -25,  -40
2413492, 1710335645, "2024/3/13 13:14:5",  9,  -59,  1006,  0,  -1,  0,  -11,  -27,  -40
2413692, 1710335646, "2024/3/13 13:14:6",  2,  -61,  1002,  0,  0,  -1,  -9,  -27,  -41
2413892, 1710335646, "2024/3/13 13:14:6",  2,  -60,  1001,  0,  -1,  0,  -8,  -27,  -39
2414092, 1710335646, "2024/3/13 13:14:6",  6,  -57,  999,  0,  -1,  0,  -11,  -26,  -40
2414292, 1710335646, "2024/3/13 13:14:6",  0,  -52,  1003,  0,  -1,  -1,  -9,  -25,  -41
2414492, 1710335646, "2024/3/13 13:14:6",  5,  -59,  1005,  0,  0,  -1,  -10,  -26,  -40
2414692, 1710335647, "2024/3/13 13:14:7",  1,  -58,  1005,  0,  -1,  -1,  -10,  -26,  -39
2414892, 1710335647, "2024/3/13 13:14:7",  4,  -54,  1002,  0,  0,  -1,  -10,  -25,  -40
2415092, 1710335647, "2024/3/13 13:14:7",  3,  -57,  1000,  1,  0,  -1,  -10,  -25,  -41
2415292, 1710335647, "2024/3/13 13:14:7",  7,  -58,  1001,  0,  0,  -1,  -9,  -27,  -41
2415492, 1710335647, "2024/3/13 13:14:7",  3,  -59,  1002,  0,  0,  -1,  -10,  -26,  -40
2415692, 1710335648, "2024/3/13 13:14:8",  5,  -66,  1004,  0,  0,  -1,  -10,  -26,  -40
2415892, 1710335648, "2024/3/13 13:14:8",  6,  -59,  1001,  0,  0,  0,  -10,  -26,  -41
2416092, 1710335648, "2024/3/13 13:14:8",  3,  -58,  1003,  0,  0,  0,  -9,  -26,  -41
2416292, 1710335648, "2024/3/13 13:14:8",  2,  -52,  1005,  0,  0,  -1,  -9,  -26,  -42
2416492, 1710335648, "2024/3/13 13:14:8",  3,  -58,  1001,  0,  0,  0,  -11,  -26,  -40
2416692, 1710335649, "2024/3/13 13:14:9",  4,  -59,  1003,  0,  0,  0,  -11,  -26,  -40
2416892, 1710335649, "2024/3/13 13:14:9",  2,  -58,  1002,  0,  -1,  -1,  -11,  -25,  -40
2417092, 1710335649, "2024/3/13 13:14:9",  1,  -63,  1004,  0,  0,  -1,  -11,  -26,  -41
2417292, 1710335649, "2024/3/13 13:14:9",  7,  -57,  1001,  0,  0,  -1,  -9,  -25,  -39
2417492, 1710335649, "2024/3/13 13:14:9",  5,  -57,  1001,  0,  0,  -1,  -8,  -27,  -39
2417692, 1710335650, "2024/3/13 13:14:10",  7,  -56,  1002,  0,  0,  -1,  -10,  -26,  -41
2417892, 1710335650, "2024/3/13 13:14:10",  6,  -57,  1001,  0,  0,  -1,  -10,  -27,  -40
2418092, 1710335650, "2024/3/13 13:14:10",  9,  -60,  1006,  0,  0,  -1,  -11,  -25,  -40
2418292, 1710335650, "2024/3/13 13:14:10",  4,  -61,  1001,  0,  0,  0,  -11,  -25,  -40
2418492, 1710335650, "2024/3/13 13:14:10",  3,  -57,  1003,  0,  0,  0,  -9,  -26,  -39
2418692, 1710335651, "2024/3/13 13:14:11",  6,  -55,  1003,  0,  0,  -1,  -11,  -26,  -41
2418892, 1710335651, "2024/3/13 13:14:11",  1,  -58,  1004,  0,  0,  -1,  -10,  -27,  -39
2419092, 1710335651, "2024/3/13 13:14:11",  5,  -58,  1006,  0,  0,  -1,  -10,  -27,  -40
2419292, 1710335651, "2024/3/13 13:14:11",  7,  -62,  1005,  0,  0,  -1,  -8,  -26,  -39
2419492, 1710335651, "2024/3/13 13:14:11",  4,  -53,  1001,  0,  0,  0,  -10,  -26,  -40
2419692, 1710335652, "2024/3/13 13:14:12",  8,  -55,  1001,  0,  0,  -1,  -10,  -27,  -41
2419892, 1710335652, "2024/3/13 13:14:12",  7,  -58,  1004,  0,  0,  0,  -11,  -26,  -41
2420092, 1710335652, "2024/3/13 13:14:12",  6,  -53,  1003,  0,  0,  -1,  -9,  -26,  -39
2420292, 1710335652, "2024/3/13 13:14:12",  4,  -52,  1001,  0,  0,  0,  -9,  -27,  -40
2420492, 1710335652, "2024/3/13 13:14:12",  6,  -63,  1003,  0,  0,  0,  -11,  -27,  -41
2420692, 1710335653, "2024/3/13 13:14:13",  7,  -60,  1003,  0,  0,  0,  -10,  -26,  -40
2420892, 1710335653, "2024/3/13 13:14:13",  6,  -58,  1006,  0,  0,  0,  -10,  -27,  -39
2421092, 1710335653, "2024/3/13 13:14:13",  4,  -55,  1003,  0,  0,  -1,  -11,  -27,  -40
2421292, 1710335653, "2024/3/13 13:14:13",  3,  -55,  1000,  0,  0,  -1,  -10,  -25,  -40
2421492, 1710335653, "2024/3/13 13:14:13",  6,  -56,  1003,  0,  0,  0,  -10,  -27,  -40
2421692, 1710335654, "2024/3/13 13:14:14",  2,  -54,  1004,  0,  0,  -1,  -11,  -26,  -40
2421892, 1710335654, "2024/3/13 13:14:14",  5,  -61,  1004,  0,  -1,  0,  -9,  -28,  -39
2422092, 1710335654, "2024/3/13 13:14:14",  3,  -55,  1004,  0,  -1,  -1,  -9,  -26,  -40
2422292, 1710335654, "2024/3/13 13:14:14",  4,  -57,  1002,  0,  0,  -1,  -10,  -27,  -39
2422492, 1710335654, "2024/3/13 13:14:14",  0,  -52,  1002,  0,  0,  -1,  -10,  -27,  -40
2422692, 1710335655, "2024/3/13 13:14:15",  5,  -60,  1000,  0,  0,  -1,  -10,  -27,  -40
2422892, 1710335655, "2024/3/13 13:14:15",  8,  -60,  1002,  0,  0,  -1,  -11,  -27,  -40
2423092, 1710335655, "2024/3/13 13:14:15",  5,  -53,  1002,  0,  0,  -1,  -10,  -27,  -39
2423292, 1710335655, "2024/3/13 13:14:15",  5,  -53,  1002,  0,  -1,  -1,  -10,  -26,  -41
2423492, 1710335655, "2024/3/13 13:14:15",  5,  -53,  1002,  0,  -1,  -1,  -12,  -26,  -41
2423692, 1710335656, "2024/3/13 13:14:16",  5,  -54,  1003,  0,  0,  0,  -9,  -27,  -40
2423892, 1710335656, "2024/3/13 13:14:16",  7,  -56,  1002,  0,  0,  -1,  -10,  -25,  -41
2424092, 1710335656, "2024/3/13 13:14:16",  6,  -56,  1001,  0,  0,  -1,  -9,  -26,  -40
2424292, 1710335656, "2024/3/13 13:14:16",  9,  -54,  1001,  0,  0,  -1,  -11,  -26,  -40
2424492, 1710335656, "2024/3/13 13:14:16",  9,  -54,  1003,  0,  -1,  0,  -8,  -26,  -40
2424692, 1710335657, "2024/3/13 13:14:17",  5,  -57,  1004,  0,  0,  -1,  -11,  -25,  -40
2424892, 1710335657, "2024/3/13 13:14:17",  1,  -54,  1007,  0,  0,  -1,  -10,  -24,  -40
2425092, 1710335657, "2024/3/13 13:14:17",  1,  -60,  1002,  0,  -1,  -1,  -10,  -26,  -40
2425292, 1710335657, "2024/3/13 13:14:17",  3,  -56,  1002,  0,  0,  -1,  -11,  -27,  -40
2425492, 1710335657, "2024/3/13 13:14:17",  4,  -60,  1004,  0,  -1,  -1,  -11,  -26,  -40
2425692, 1710335658, "2024/3/13 13:14:18",  8,  -57,  1006,  0,  0,  0,  -10,  -25,  -42
2425892, 1710335658, "2024/3/13 13:14:18",  8,  -56,  1002,  0,  0,  -1,  -11,  -26,  -40
2426092, 1710335658, "2024/3/13 13:14:18",  6,  -56,  1003,  0,  0,  -1,  -10,  -27,  -41
2426292, 1710335658, "2024/3/13 13:14:18",  3,  -60,  1001,  0,  0,  -1,  -10,  -27,  -41
2426492, 1710335658, "2024/3/13 13:14:18",  5,  -56,  1005,  0,  0,  -1,  -11,  -26,  -40
2426692, 1710335659, "2024/3/13 13:14:19",  3,  -63,  1006,  0,  0,  0,  -10,  -25,  -40
2426892, 1710335659, "2024/3/13 13:14:19",  3,  -55,  999,  0,  -1,  0,  -10,  -27,  -41
2427092, 1710335659, "2024/3/13 13:14:19",  9,  -60,  1003,  0,  0,  -1,  -11,  -26,  -39
2427292, 1710335659, "2024/3/13 13:14:19",  4,  -56,  1003,  0,  0,  0,  -9,  -25,  -40
2427492, 1710335659, "2024/3/13 13:14:19",  2,  -58,  1000,  0,  0,  0,  -12,  -26,  -40
2427692, 1710335660, "2024/3/13 13:14:20",  3,  -54,  1002,  0,  0,  0,  -11,  -25,  -40
2427892, 1710335660, "2024/3/13 13:14:20",  6,  -58,  1003,  0,  0,  -1,  -12,  -26,  -39
2428092, 1710335660, "2024/3/13 13:14:20",  0,  -56,  1000,  0,  0,  0,  -10,  -26,  -42
2428292, 1710335660, "2024/3/13 13:14:20",  9,  -60,  1003,  0,  0,  0,  -10,  -26,  -39
2428492, 1710335660, "2024/3/13 13:14:20",  6,  -57,  1005,  0,  0,  -1,  -11,  -24,  -39
2428692, 1710335661, "2024/3/13 13:14:21",  4,  -60,  1004,  0,  -1,  -1,  -11,  -26,  -38
2428892, 1710335661, "2024/3/13 13:14:21",  6,  -55,  1004,  0,  0,  -1,  -10,  -26,  -42
2429092, 1710335661, "2024/3/13 13:14:21",  4,  -53,  1005,  0,  0,  -1,  -10,  -26,  -39
2429292, 1710335661, "2024/3/13 13:14:21",  2,  -62,  1002,  0,  0,  -1,  -10,  -26,  -39
2429492, 1710335661, "2024/3/13 13:14:21",  2,  -58,  1004,  0,  0,  0,  -10,  -25,  -39
2429692, 1710335662, "2024/3/13 13:14:22",  2,  -55,  1002,  0,  -1,  -1,  -11,  -25,  -41
2429892, 1710335662, "2024/3/13 13:14:22",  1,  -55,  1002,  0,  -1,  -1,  -10,  -25,  -40
2430092, 1710335662, "2024/3/13 13:14:22",  5,  -56,  1000,  0,  0,  -1,  -11,  -25,  -39
2430292, 1710335662, "2024/3/13 13:14:22",  3,  -59,  1003,  0,  0,  0,  -12,  -26,  -40
2430492, 1710335662, "2024/3/13 13:14:22",  2,  -57,  1004,  0,  0,  0,  -11,  -26,  -40
2430692, 1710335663, "2024/3/13 13:14:23",  6,  -60,  1006,  0,  0,  -1,  -9,  -26,  -42
2430892, 1710335663, "2024/3/13 13:14:23",  4,  -62,  1004,  0,  0,  -1,  -11,  -27,  -39
2431092, 1710335663, "2024/3/13 13:14:23",  3,  -56,  1003,  0,  0,  0,  -11,  -27,  -40
2431292, 1710335663, "2024/3/13 13:14:23",  4,  -58,  1003,  0,  0,  -1,  -9,  -27,  -40
2431492, 1710335663, "2024/3/13 13:14:23",  7,  -57,  1006,  0,  0,  -1,  -9,  -26,  -40
2431692, 1710335664, "2024/3/13 13:14:24",  1,  -56,  1003,  0,  0,  -1,  -11,  -26,  -40
2431892, 1710335664, "2024/3/13 13:14:24",  4,  -55,  1004,  0,  0,  0,  -10,  -25,  -41
2432092, 1710335664, "2024/3/13 13:14:24",  -2,  -56,  1001,  0,  0,  0,  -10,  -27,  -41
2432292, 1710335664, "2024/3/13 13:14:24",  4,  -53,  1005,  0,  0,  0,  -10,  -27,  -41
2432492, 1710335664, "2024/3/13 13:14:24",  5,  -63,  1004,  0,  0,  0,  -10,  -26,  -40
2432692, 1710335665, "2024/3/13 13:14:25",  7,  -59,  1003,  0,  0,  -1,  -10,  -26,  -40
2432892, 1710335665, "2024/3/13 13:14:25",  10,  -48,  1002,  0,  0,  -1,  -9,  -27,  -41
2433092, 1710335665, "2024/3/13 13:14:25",  4,  -54,  1004,  0,  0,  0,  -10,  -27,  -40
2433292, 1710335665, "2024/3/13 13:14:25",  3,  -56,  998,  0,  -1,  -1,  -10,  -26,  -39
2433492, 1710335665, "2024/3/13 13:14:25",  6,  -54,  1002,  0,  0,  0,  -9,  -25,  -41
2433692, 1710335666, "2024/3/13 13:14:26",  8,  -53,  1006,  0,  0,  0,  -10,  -27,  -40
2433892, 1710335666, "2024/3/13 13:14:26",  1,  -53,  1003,  0,  -1,  -1,  -10,  -26,  -41
2434092, 1710335666, "2024/3/13 13:14:26",  5,  -60,  1003,  0,  0,  -1,  -11,  -27,  -39
2434292, 1710335666, "2024/3/13 13:14:26",  6,  -57,  1000,  0,  0,  -1,  -11,  -26,  -39
2434492, 1710335666, "2024/3/13 13:14:26",  6,  -58,  1004,  0,  0,  0,  -12,  -26,  -41
2434692, 1710335667, "2024/3/13 13:14:27",  6,  -58,  1000,  0,  0,  -1,  -10,  -26,  -39
2434892, 1710335667, "2024/3/13 13:14:27",  5,  -56,  1001,  0,  0,  0,  -9,  -24,  -40
2435092, 1710335667, "2024/3/13 13:14:27",  5,  -62,  1001,  0,  0,  0,  -9,  -25,  -43
2435292, 1710335667, "2024/3/13 13:14:27",  8,  -56,  1002,  0,  0,  -1,  -9,  -26,  -40
2435492, 1710335667, "2024/3/13 13:14:27",  3,  -55,  1002,  0,  0,  -1,  -10,  -25,  -42
2435692, 1710335668, "2024/3/13 13:14:28",  0,  -49,  1002,  0,  0,  -1,  -10,  -26,  -40
2435892, 1710335668, "2024/3/13 13:14:28",  6,  -57,  1003,  0,  0,  0,  -9,  -26,  -41
2436092, 1710335668, "2024/3/13 13:14:28",  4,  -58,  1003,  0,  0,  -1,  -10,  -26,  -40
2436292, 1710335668, "2024/3/13 13:14:28",  3,  -56,  1000,  0,  0,  -1,  -11,  -27,  -40
2436492, 1710335668, "2024/3/13 13:14:28",  4,  -57,  1007,  0,  0,  -1,  -10,  -26,  -41
2436692, 1710335669, "2024/3/13 13:14:29",  8,  -61,  1003,  0,  0,  0,  -10,  -27,  -39
2436892, 1710335669, "2024/3/13 13:14:29",  5,  -59,  1002,  0,  0,  0,  -10,  -26,  -41
2437092, 1710335669, "2024/3/13 13:14:29",  7,  -57,  1002,  0,  0,  -1,  -9,  -25,  -42
2437292, 1710335669, "2024/3/13 13:14:29",  6,  -56,  1006,  0,  0,  -1,  -9,  -27,  -40
2437492, 1710335669, "2024/3/13 13:14:29",  7,  -62,  1002,  0,  0,  -1,  -11,  -27,  -40
2437692, 1710335670, "2024/3/13 13:14:30",  5,  -54,  1004,  0,  0,  -1,  -10,  -28,  -40
2437892, 1710335670, "2024/3/13 13:14:30",  3,  -54,  1006,  0,  0,  0,  -9,  -26,  -40
2438092, 1710335670, "2024/3/13 13:14:30",  0,  -58,  1003,  0,  0,  0,  -9,  -27,  -41
2438292, 1710335670, "2024/3/13 13:14:30",  4,  -55,  1003,  0,  0,  -1,  -9,  -26,  -40
2438492, 1710335670, "2024/3/13 13:14:30",  5,  -60,  1002,  0,  -1,  0,  -9,  -26,  -40
2438692, 1710335671, "2024/3/13 13:14:31",  3,  -62,  1003,  0,  0,  0,  -10,  -27,  -40
2438892, 1710335671, "2024/3/13 13:14:31",  3,  -58,  1003,  0,  0,  0,  -10,  -27,  -40
2439092, 1710335671, "2024/3/13 13:14:31",  3,  -54,  1002,  0,  0,  0,  -9,  -26,  -41
2439292, 1710335671, "2024/3/13 13:14:31",  7,  -58,  1002,  0,  -1,  -1,  -10,  -27,  -39
2439492, 1710335671, "2024/3/13 13:14:31",  4,  -54,  1005,  0,  0,  -1,  -9,  -26,  -42
2439692, 1710335672, "2024/3/13 13:14:32",  7,  -53,  1005,  0,  0,  -1,  -10,  -26,  -40
2439892, 1710335672, "2024/3/13 13:14:32",  2,  -54,  1002,  0,  0,  -1,  -9,  -27,  -41
2440092, 1710335672, "2024/3/13 13:14:32",  5,  -54,  1005,  0,  0,  0,  -11,  -27,  -41
2440292, 1710335672, "2024/3/13 13:14:32",  3,  -58,  1006,  0,  0,  -1,  -11,  -25,  -41
2440492, 1710335672, "2024/3/13 13:14:32",  9,  -55,  1004,  0,  0,  -1,  -10,  -26,  -40
2440692, 1710335673, "2024/3/13 13:14:33",  5,  -61,  1001,  0,  0,  -1,  -11,  -24,  -41
2440892, 1710335673, "2024/3/13 13:14:33",  5,  -56,  1001,  0,  -1,  -1,  -10,  -26,  -40
2441092, 1710335673, "2024/3/13 13:14:33",  5,  -54,  1004,  0,  0,  -1,  -10,  -26,  -40
2441292, 1710335673, "2024/3/13 13:14:33",  9,  -57,  1004,  0,  0,  -1,  -9,  -25,  -39
2441492, 1710335673, "2024/3/13 13:14:33",  4,  -61,  1004,  0,  0,  0,  -10,  -27,  -41
2441692, 1710335674, "2024/3/13 13:14:34",  4,  -63,  1002,  0,  0,  -1,  -9,  -27,  -39
2441892, 1710335674, "2024/3/13 13:14:34",  2,  -55,  1003,  0,  0,  -1,  -11,  -26,  -40
2442092, 1710335674, "2024/3/13 13:14:34",  7,  -61,  1003,  0,  0,  -1,  -9,  -25,  -41
2442292, 1710335674, "2024/3/13 13:14:34",  6,  -58,  1001,  0,  0,  -1,  -10,  -27,  -41
2442492, 1710335674, "2024/3/13 13:14:34",  3,  -56,  1005,  0,  0,  -1,  -10,  -26,  -42
2442692, 1710335675, "2024/3/13 13:14:35",  7,  -62,  1005,  0,  0,  -1,  -8,  -27,  -40
2442892, 1710335675, "2024/3/13 13:14:35",  8,  -58,  1003,  1,  -1,  -1,  -10,  -27,  -40
2443092, 1710335675, "2024/3/13 13:14:35",  0,  -55,  1004,  0,  -1,  0,  -11,  -26,  -39
2443292, 1710335675, "2024/3/13 13:14:35",  7,  -60,  1006,  0,  -1,  -1,  -10,  -27,  -40
2443492, 1710335675, "2024/3/13 13:14:35",  2,  -52,  1005,  0,  0,  0,  -10,  -26,  -40
2443692, 1710335676, "2024/3/13 13:14:36",  2,  -58,  1003,  0,  0,  0,  -9,  -27,  -39
2443892, 1710335676, "2024/3/13 13:14:36",  7,  -59,  1004,  0,  0,  -1,  -10,  -27,  -39
2444092, 1710335676, "2024/3/13 13:14:36",  5,  -57,  1006,  0,  0,  0,  -10,  -26,  -41
2444292, 1710335676, "2024/3/13 13:14:36",  3,  -56,  1003,  0,  0,  -1,  -11,  -25,  -39
2444492, 1710335676, "2024/3/13 13:14:36",  4,  -56,  1005,  0,  0,  0,  -9,  -25,  -41
2444692, 1710335677, "2024/3/13 13:14:37",  2,  -54,  1003,  0,  0,  -1,  -11,  -26,  -40
2444892, 1710335677, "2024/3/13 13:14:37",  5,  -59,  1002,  0,  0,  -1,  -10,  -26,  -40
2445092, 1710335677, "2024/3/13 13:14:37",  4,  -57,  1003,  0,  0,  0,  -10,  -25,  -40
2445292, 1710335677, "2024/3/13 13:14:37",  5,  -59,  1000,  0,  0,  0,  -10,  -27,  -38
2445492, 1710335677, "2024/3/13 13:14:37",  2,  -54,  1008,  0,  0,  -1,  -11,  -25,  -40
2445692, 1710335678, "2024/3/13 13:14:38",  4,  -56,  1001,  0,  0,  0,  -9,  -25,  -39
2445892, 1710335678, "2024/3/13 13:14:38",  2,  -62,  1002,  0,  0,  0,  -11,  -27,  -40
2446092, 1710335678, "2024/3/13 13:14:38",  5,  -57,  1001,  0,  0,  -1,  -11,  -26,  -40
2446292, 1710335678, "2024/3/13 13:14:38",  3,  -58,  1003,  0,  0,  -1,  -9,  -27,  -40
2446492, 1710335678, "2024/3/13 13:14:38",  3,  -61,  999,  0,  0,  0,  -11,  -26,  -40
2446692, 1710335679, "2024/3/13 13:14:39",  5,  -57,  1002,  0,  0,  0,  -10,  -26,  -40
2446892, 1710335679, "2024/3/13 13:14:39",  4,  -52,  1006,  0,  -1,  0,  -10,  -25,  -40
2447092, 1710335679, "2024/3/13 13:14:39",  8,  -57,  1008,  0,  0,  0,  -10,  -27,  -40
2447292, 1710335679, "2024/3/13 13:14:39",  9,  -62,  1004,  0,  -1,  0,  -9,  -26,  -40
2447492, 1710335679, "2024/3/13 13:14:39",  10,  -60,  1006,  0,  0,  -1,  -9,  -24,  -40
2447692, 1710335680, "2024/3/13 13:14:40",  5,  -57,  1003,  0,  0,  -1,  -9,  -27,  -39
2447892, 1710335680, "2024/3/13 13:14:40",  7,  -52,  1003,  0,  0,  -1,  -10,  -25,  -39
2448092, 1710335680, "2024/3/13 13:14:40",  3,  -60,  1000,  0,  -1,  -1,  -9,  -27,  -39
2448292, 1710335680, "2024/3/13 13:14:40",  5,  -65,  1007,  0,  -1,  0,  -8,  -26,  -38
2448492, 1710335680, "2024/3/13 13:14:40",  2,  -53,  1003,  0,  0,  0,  -10,  -26,  -39
2448692, 1710335681, "2024/3/13 13:14:41",  10,  -52,  999,  0,  0,  0,  -11,  -26,  -39
2448892, 1710335681, "2024/3/13 13:14:41",  8,  -54,  1003,  0,  0,  -1,  -10,  -26,  -39
2449092, 1710335681, "2024/3/13 13:14:41",  4,  -54,  1001,  0,  0,  0,  -11,  -25,  -39
2449292, 1710335681, "2024/3/13 13:14:41",  1,  -55,  1003,  0,  0,  -1,  -9,  -27,  -39
2449492, 1710335681, "2024/3/13 13:14:41",  -1,  -59,  1004,  0,  0,  -1,  -10,  -27,  -39
2449692, 1710335682, "2024/3/13 13:14:42",  6,  -57,  1001,  0,  -1,  0,  -10,  -27,  -40
2449892, 1710335682, "2024/3/13 13:14:42",  2,  -59,  1003,  0,  0,  -1,  -11,  -26,  -39
2450092, 1710335682, "2024/3/13 13:14:42",  2,  -59,  1006,  0,  0,  0,  -10,  -26,  -39
2450292, 1710335682, "2024/3/13 13:14:42",  8,  -57,  1005,  0,  0,  0,  -9,  -25,  -39
2450492, 1710335682, "2024/3/13 13:14:42",  9,  -50,  1000,  0,  0,  0,  -11,  -27,  -40
2450692, 1710335683, "2024/3/13 13:14:43",  9,  -55,  1000,  0,  0,  -1,  -11,  -26,  -39
2450892, 1710335683, "2024/3/13 13:14:43",  10,  -56,  1004,  0,  0,  -1,  -10,  -27,  -38
2451092, 1710335683, "2024/3/13 13:14:43",  7,  -56,  1001,  0,  0,  -1,  -10,  -27,  -39
2451292, 1710335683, "2024/3/13 13:14:43",  4,  -57,  1005,  0,  0,  0,  -11,  -26,  -39
2451492, 1710335683, "2024/3/13 13:14:43",  4,  -61,  1002,  0,  0,  0,  -11,  -26,  -38
2451692, 1710335684, "2024/3/13 13:14:44",  5,  -56,  1003,  0,  0,  -1,  -10,  -26,  -37
2451892, 1710335684, "2024/3/13 13:14:44",  7,  -59,  1002,  0,  0,  -1,  -10,  -27,  -40
2452092, 1710335684, "2024/3/13 13:14:44",  3,  -58,  1000,  0,  0,  -1,  -10,  -27,  -38
2452292, 1710335684, "2024/3/13 13:14:44",  7,  -54,  1006,  0,  -1,  0,  -10,  -26,  -38
2452492, 1710335684, "2024/3/13 13:14:44",  5,  -64,  1010,  0,  0,  -1,  -11,  -26,  -39
2452692, 1710335685, "2024/3/13 13:14:45",  1,  -59,  1001,  0,  0,  0,  -11,  -26,  -37
2452892, 1710335685, "2024/3/13 13:14:45",  5,  -60,  1005,  0,  0,  -1,  -10,  -26,  -39
2453092, 1710335685, "2024/3/13 13:14:45",  5,  -59,  1005,  0,  0,  -1,  -9,  -27,  -40
2453292, 1710335685, "2024/3/13 13:14:45",  6,  -56,  1003,  0,  0,  0,  -10,  -26,  -38
2453492, 1710335685, "2024/3/13 13:14:45",  7,  -54,  1004,  0,  0,  0,  -10,  -27,  -39
2453692, 1710335686, "2024/3/13 13:14:46",  4,  -63,  1000,  0,  0,  -1,  -10,  -26,  -39
2453892, 1710335686, "2024/3/13 13:14:46",  9,  -61,  1004,  0,  0,  0,  -10,  -26,  -39
2454092, 1710335686, "2024/3/13 13:14:46",  2,  -59,  1004,  0,  0,  0,  -8,  -26,  -38
2454292, 1710335686, "2024/3/13 13:14:46",  7,  -56,  1003,  0,  0,  0,  -11,  -26,  -40
2454492, 1710335686, "2024/3/13 13:14:46",  2,  -57,  1002,  0,  0,  0,  -10,  -27,  -38
2454692, 1710335687, "2024/3/13 13:14:47",  5,  -61,  1005,  0,  -1,  -1,  -11,  -27,  -39
2454892, 1710335687, "2024/3/13 13:14:47",  10,  -60,  1003,  0,  0,  -1,  -11,  -26,  -40
2455092, 1710335687, "2024/3/13 13:14:47",  12,  -63,  1002,  0,  0,  -1,  -10,  -26,  -39
2455292, 1710335687, "2024/3/13 13:14:47",  6,  -55,  1003,  0,  0,  0,  -9,  -25,  -38
2455492, 1710335687, "2024/3/13 13:14:47",  2,  -58,  1001,  0,  0,  -1,  -10,  -26,  -38
2455692, 1710335688, "2024/3/13 13:14:48",  7,  -61,  1003,  0,  0,  -1,  -11,  -26,  -40
2455892, 1710335688, "2024/3/13 13:14:48",  3,  -61,  1000,  0,  0,  -1,  -10,  -27,  -38
2456092, 1710335688, "2024/3/13 13:14:48",  7,  -57,  1001,  0,  0,  -1,  -11,  -27,  -38
2456292, 1710335688, "2024/3/13 13:14:48",  2,  -58,  1004,  0,  0,  -1,  -10,  -25,  -39
2456492, 1710335688, "2024/3/13 13:14:48",  9,  -56,  1003,  0,  0,  -1,  -12,  -26,  -39
2456692, 1710335689, "2024/3/13 13:14:49",  9,  -55,  1000,  0,  0,  0,  -10,  -27,  -39
2456892, 1710335689, "2024/3/13 13:14:49",  5,  -62,  1003,  0,  0,  -1,  -10,  -26,  -38
2457092, 1710335689, "2024/3/13 13:14:49",  8,  -58,  1002,  0,  0,  -1,  -9,  -25,  -39
2457292, 1710335689, "2024/3/13 13:14:49",  8,  -58,  1003,  0,  0,  -1,  -11,  -28,  -39
2457492, 1710335689, "2024/3/13 13:14:49",  9,  -60,  1002,  0,  0,  0,  -10,  -24,  -40
2457692, 1710335690, "2024/3/13 13:14:50",  8,  -62,  1004,  0,  0,  0,  -10,  -26,  -38
2457892, 1710335690, "2024/3/13 13:14:50",  5,  -56,  1005,  0,  0,  -1,  -11,  -26,  -39
2458092, 1710335690, "2024/3/13 13:14:50",  6,  -54,  1001,  0,  0,  -1,  -11,  -27,  -38
2458292, 1710335690, "2024/3/13 13:14:50",  6,  -56,  1006,  0,  0,  -1,  -9,  -25,  -40
2458492, 1710335690, "2024/3/13 13:14:50",  8,  -67,  1001,  0,  0,  0,  -9,  -26,  -40
2458692, 1710335691, "2024/3/13 13:14:51",  7,  -62,  1002,  0,  0,  -1,  -11,  -27,  -40
2458892, 1710335691, "2024/3/13 13:14:51",  3,  -58,  1003,  0,  0,  0,  -10,  -26,  -40
2459092, 1710335691, "2024/3/13 13:14:51",  5,  -63,  1002,  0,  0,  0,  -11,  -28,  -39
2459292, 1710335691, "2024/3/13 13:14:51",  7,  -59,  1001,  0,  0,  -1,  -11,  -27,  -38
2459492, 1710335691, "2024/3/13 13:14:51",  4,  -59,  998,  0,  0,  -1,  -9,  -25,  -38
2459692, 1710335692, "2024/3/13 13:14:52",  10,  -57,  1001,  0,  0,  -1,  -10,  -26,  -39
2459892, 1710335692, "2024/3/13 13:14:52",  7,  -61,  1000,  0,  0,  -1,  -10,  -27,  -41
2460092, 1710335692, "2024/3/13 13:14:52",  6,  -58,  1008,  0,  0,  0,  -10,  -26,  -39
2460292, 1710335692, "2024/3/13 13:14:52",  2,  -59,  1003,  0,  0,  0,  -9,  -27,  -39
2460492, 1710335692, "2024/3/13 13:14:52",  6,  -62,  1005,  0,  0,  0,  -9,  -26,  -40
2460692, 1710335693, "2024/3/13 13:14:53",  5,  -60,  1001,  0,  0,  -1,  -9,  -26,  -39
2460892, 1710335693, "2024/3/13 13:14:53",  9,  -60,  1004,  0,  0,  -1,  -11,  -25,  -39
2461092, 1710335693, "2024/3/13 13:14:53",  5,  -56,  1004,  0,  0,  -1,  -8,  -26,  -39
2461292, 1710335693, "2024/3/13 13:14:53",  7,  -54,  1003,  0,  0,  -1,  -9,  -26,  -39
2461492, 1710335693, "2024/3/13 13:14:53",  8,  -57,  1001,  0,  0,  -1,  -10,  -26,  -38
2461692, 1710335694, "2024/3/13 13:14:54",  9,  -64,  1001,  0,  0,  0,  -9,  -26,  -39
2461892, 1710335694, "2024/3/13 13:14:54",  3,  -60,  1002,  0,  0,  -1,  -13,  -26,  -39
2462092, 1710335694, "2024/3/13 13:14:54",  11,  -62,  1003,  0,  0,  -1,  -9,  -25,  -38
2462292, 1710335694, "2024/3/13 13:14:54",  9,  -64,  1001,  0,  0,  -1,  -10,  -27,  -39
2462492, 1710335694, "2024/3/13 13:14:54",  10,  -60,  1004,  0,  0,  -1,  -9,  -27,  -40
2462692, 1710335695, "2024/3/13 13:14:55",  9,  -58,  1003,  0,  0,  -1,  -11,  -27,  -38
2462892, 1710335695, "2024/3/13 13:14:55",  9,  -57,  1002,  0,  0,  0,  -9,  -27,  -39
2463092, 1710335695, "2024/3/13 13:14:55",  7,  -55,  1005,  0,  0,  0,  -9,  -27,  -39
2463292, 1710335695, "2024/3/13 13:14:55",  1,  -60,  1003,  0,  0,  -1,  -10,  -28,  -39
2463492, 1710335695, "2024/3/13 13:14:55",  2,  -55,  1003,  0,  0,  -1,  -9,  -26,  -39
2463692, 1710335696, "2024/3/13 13:14:56",  6,  -59,  1004,  0,  0,  0,  -9,  -27,  -39
2463892, 1710335696, "2024/3/13 13:14:56",  5,  -52,  1000,  0,  -1,  -1,  -9,  -26,  -39
2464092, 1710335696, "2024/3/13 13:14:56",  9,  -59,  1002,  0,  0,  0,  -9,  -26,  -39
2464292, 1710335696, "2024/3/13 13:14:56",  8,  -57,  1003,  0,  0,  0,  -10,  -25,  -38
2464492, 1710335696, "2024/3/13 13:14:56",  7,  -60,  1003,  0,  0,  0,  -11,  -27,  -40
2464692, 1710335697, "2024/3/13 13:14:57",  6,  -62,  1006,  0,  0,  -1,  -10,  -26,  -39
2464892, 1710335697, "2024/3/13 13:14:57",  5,  -59,  1002,  0,  -1,  -1,  -11,  -25,  -39
2465092, 1710335697, "2024/3/13 13:14:57",  6,  -58,  1002,  0,  -1,  0,  -9,  -26,  -40
2465292, 1710335697, "2024/3/13 13:14:57",  10,  -59,  1000,  0,  0,  0,  -10,  -27,  -40
2465492, 1710335697, "2024/3/13 13:14:57",  11,  -56,  1002,  0,  0,  -1,  -11,  -27,  -39
2465692, 1710335698, "2024/3/13 13:14:58",  10,  -61,  1003,  0,  0,  -1,  -9,  -27,  -38
2465892, 1710335698, "2024/3/13 13:14:58",  7,  -62,  1003,  0,  0,  -1,  -10,  -26,  -38
2466092, 1710335698, "2024/3/13 13:14:58",  6,  -55,  1004,  0,  0,  -1,  -10,  -26,  -38
2466292, 1710335698, "2024/3/13 13:14:58",  9,  -62,  1006,  0,  0,  0,  -10,  -25,  -40
2466492, 1710335698, "2024/3/13 13:14:58",  6,  -60,  1002,  0,  0,  0,  -11,  -27,  -38
2466692, 1710335699, "2024/3/13 13:14:59",  10,  -64,  1002,  0,  0,  0,  -12,  -26,  -40
2466892, 1710335699, "2024/3/13 13:14:59",  7,  -58,  1002,  0,  0,  0,  -10,  -26,  -39
2467092, 1710335699, "2024/3/13 13:14:59",  12,  -57,  1003,  0,  0,  -1,  -9,  -26,  -39
2467292, 1710335699, "2024/3/13 13:14:59",  8,  -60,  1006,  0,  0,  0,  -9,  -26,  -40
2467492, 1710335699, "2024/3/13 13:14:59",  6,  -59,  1006,  0,  0,  -1,  -11,  -27,  -39
2467692, 1710335700, "2024/3/13 13:15:0",  8,  -61,  1004,  0,  0,  -1,  -10,  -27,  -39
2467892, 1710335700, "2024/3/13 13:15:0",  11,  -59,  1006,  0,  0,  -1,  -11,  -27,  -38
2468092, 1710335700, "2024/3/13 13:15:0",  5,  -58,  1003,  0,  0,  0,  -11,  -26,  -40
2468292, 1710335700, "2024/3/13 13:15:0",  5,  -63,  1002,  0,  0,  0,  -9,  -25,  -39
2468492, 1710335700, "2024/3/13 13:15:0",  7,  -60,  1005,  0,  0,  0,  -10,  -26,  -38
2468692, 1710335701, "2024/3/13 13:15:1",  6,  -58,  1001,  0,  0,  0,  -10,  -26,  -38
2468892, 1710335701, "2024/3/13 13:15:1",  4,  -57,  1005,  0,  -1,  -1,  -9,  -26,  -38
2469092, 1710335701, "2024/3/13 13:15:1",  14,  -53,  1002,  0,  0,  -1,  -9,  -27,  -40
2469292, 1710335701, "2024/3/13 13:15:1",  7,  -58,  1004,  0,  0,  0,  -9,  -27,  -38
2469492, 1710335701, "2024/3/13 13:15:1",  6,  -57,  1004,  0,  0,  0,  -9,  -26,  -38
2469692, 1710335702, "2024/3/13 13:15:2",  6,  -58,  1000,  0,  0,  -1,  -11,  -27,  -41
2469892, 1710335702, "2024/3/13 13:15:2",  6,  -53,  999,  0,  0,  -1,  -10,  -28,  -39
2470092, 1710335702, "2024/3/13 13:15:2",  8,  -59,  999,  0,  0,  -1,  -9,  -26,  -40
2470292, 1710335702, "2024/3/13 13:15:2",  7,  -60,  1002,  0,  0,  -1,  -9,  -27,  -40
2470492, 1710335702, "2024/3/13 13:15:2",  9,  -63,  1004,  0,  0,  -1,  -11,  -27,  -39
2470692, 1710335703, "2024/3/13 13:15:3",  6,  -61,  1004,  0,  0,  -1,  -10,  -26,  -38
2470892, 1710335703, "2024/3/13 13:15:3",  8,  -56,  1003,  0,  0,  -1,  -11,  -25,  -39
2471092, 1710335703, "2024/3/13 13:15:3",  3,  -62,  1003,  0,  0,  -1,  -10,  -27,  -38
2471292, 1710335703, "2024/3/13 13:15:3",  15,  -55,  1000,  0,  0,  0,  -10,  -25,  -39
2471492, 1710335703, "2024/3/13 13:15:3",  9,  -55,  1004,  0,  0,  -1,  -11,  -28,  -38
2471692, 1710335704, "2024/3/13 13:15:4",  9,  -58,  1001,  0,  0,  -1,  -11,  -25,  -39
2471892, 1710335704, "2024/3/13 13:15:4",  9,  -60,  1005,  0,  0,  -1,  -10,  -27,  -38
2472092, 1710335704, "2024/3/13 13:15:4",  8,  -59,  1004,  0,  0,  0,  -9,  -27,  -40
2472292, 1710335704, "2024/3/13 13:15:4",  10,  -59,  1001,  0,  0,  -1,  -11,  -27,  -39
2472492, 1710335704, "2024/3/13 13:15:4",  6,  -62,  1006,  0,  0,  -1,  -11,  -26,  -39
2472692, 1710335705, "2024/3/13 13:15:5",  5,  -57,  1003,  0,  0,  -1,  -9,  -25,  -40
2472892, 1710335705, "2024/3/13 13:15:5",  -1,  -56,  1003,  0,  0,  -1,  -10,  -26,  -37
2473092, 1710335705, "2024/3/13 13:15:5",  5,  -59,  1003,  0,  0,  0,  -10,  -26,  -39
2473292, 1710335705, "2024/3/13 13:15:5",  5,  -65,  1001,  0,  0,  0,  -10,  -25,  -40
2473492, 1710335705, "2024/3/13 13:15:5",  4,  -57,  1006,  0,  0,  0,  -11,  -26,  -39
2473692, 1710335706, "2024/3/13 13:15:6",  5,  -58,  1001,  0,  0,  0,  -10,  -27,  -40
2473892, 1710335706, "2024/3/13 13:15:6",  5,  -58,  1001,  0,  0,  0,  -8,  -27,  -40
2474092, 1710335706, "2024/3/13 13:15:6",  10,  -58,  1003,  0,  0,  -1,  -10,  -26,  -40
2474292, 1710335706, "2024/3/13 13:15:6",  8,  -56,  1000,  0,  0,  -1,  -9,  -26,  -40
2474492, 1710335706, "2024/3/13 13:15:6",  9,  -56,  1002,  0,  0,  -1,  -9,  -26,  -39
2474692, 1710335707, "2024/3/13 13:15:7",  9,  -54,  1003,  0,  0,  0,  -10,  -26,  -39
2474892, 1710335707, "2024/3/13 13:15:7",  6,  -57,  1006,  0,  0,  -1,  -10,  -25,  -40
2475092, 1710335707, "2024/3/13 13:15:7",  7,  -63,  1005,  0,  0,  -1,  -10,  -27,  -38
2475292, 1710335707, "2024/3/13 13:15:7",  4,  -55,  1003,  0,  0,  0,  -11,  -27,  -40
2475492, 1710335707, "2024/3/13 13:15:7",  1,  -54,  1002,  0,  0,  -1,  -11,  -25,  -39
2475692, 1710335708, "2024/3/13 13:15:8",  10,  -57,  1004,  0,  0,  -1,  -9,  -26,  -40
2475892, 1710335708, "2024/3/13 13:15:8",  4,  -55,  1001,  0,  0,  -1,  -10,  -26,  -39
2476092, 1710335708, "2024/3/13 13:15:8",  4,  -56,  1001,  0,  0,  0,  -11,  -27,  -40
2476292, 1710335708, "2024/3/13 13:15:8",  5,  -65,  1007,  0,  0,  -1,  -11,  -27,  -41
2476492, 1710335709, "2024/3/13 13:15:9",  4,  -53,  1005,  0,  0,  -1,  -10,  -27,  -39
2476692, 1710335709, "2024/3/13 13:15:9",  3,  -55,  1007,  0,  0,  -1,  -10,  -27,  -39
2476892, 1710335709, "2024/3/13 13:15:9",  8,  -57,  1004,  0,  0,  0,  -9,  -26,  -40
2477092, 1710335709, "2024/3/13 13:15:9",  8,  -59,  1001,  0,  0,  -1,  -9,  -27,  -38
2477292, 1710335709, "2024/3/13 13:15:9",  7,  -52,  1000,  0,  0,  0,  -10,  -25,  -39
2477492, 1710335709, "2024/3/13 13:15:9",  7,  -59,  1002,  0,  0,  -1,  -10,  -26,  -39
2477692, 1710335710, "2024/3/13 13:15:10",  12,  -60,  1003,  0,  0,  0,  -9,  -27,  -39
2477892, 1710335710, "2024/3/13 13:15:10",  3,  -58,  1004,  0,  0,  -1,  -11,  -26,  -40
2478092, 1710335710, "2024/3/13 13:15:10",  3,  -57,  1004,  0,  0,  -1,  -10,  -26,  -39
2478292, 1710335710, "2024/3/13 13:15:10",  10,  -60,  1004,  0,  0,  -1,  -10,  -26,  -39
2478492, 1710335710, "2024/3/13 13:15:10",  8,  -56,  1006,  0,  0,  0,  -9,  -26,  -39
2478692, 1710335711, "2024/3/13 13:15:11",  4,  -57,  1002,  0,  0,  -1,  -11,  -27,  -38
2478892, 1710335711, "2024/3/13 13:15:11",  10,  -55,  1006,  0,  0,  -1,  -9,  -25,  -40
2479092, 1710335711, "2024/3/13 13:15:11",  8,  -58,  1007,  0,  0,  0,  -9,  -26,  -39
2479292, 1710335711, "2024/3/13 13:15:11",  5,  -57,  1004,  0,  0,  -1,  -10,  -26,  -38
2479492, 1710335711, "2024/3/13 13:15:11",  9,  -56,  1003,  0,  0,  -1,  -11,  -27,  -38
2479692, 1710335712, "2024/3/13 13:15:12",  7,  -59,  1004,  0,  0,  -1,  -8,  -25,  -39
2479892, 1710335712, "2024/3/13 13:15:12",  7,  -63,  1006,  0,  0,  -1,  -10,  -26,  -40
2480092, 1710335712, "2024/3/13 13:15:12",  -1,  -55,  1004,  0,  0,  0,  -9,  -25,  -38
2480292, 1710335712, "2024/3/13 13:15:12",  4,  -58,  1002,  0,  0,  -1,  -9,  -26,  -40
2480492, 1710335712, "2024/3/13 13:15:12",  0,  -59,  1003,  0,  -1,  0,  -9,  -25,  -40
2480692, 1710335713, "2024/3/13 13:15:13",  -2,  -54,  1005,  0,  0,  -1,  -11,  -26,  -39
2480892, 1710335713, "2024/3/13 13:15:13",  -5,  -63,  1003,  0,  0,  0,  -11,  -26,  -38
2481092, 1710335713, "2024/3/13 13:15:13",  1,  -57,  1004,  0,  0,  0,  -11,  -27,  -38
2481292, 1710335713, "2024/3/13 13:15:13",  9,  -60,  1006,  0,  0,  -1,  -9,  -26,  -39
2481492, 1710335713, "2024/3/13 13:15:13",  6,  -58,  1002,  0,  0,  0,  -11,  -27,  -39
2481692, 1710335714, "2024/3/13 13:15:14",  6,  -56,  1004,  0,  -1,  0,  -10,  -24,  -38
2481892, 1710335714, "2024/3/13 13:15:14",  11,  -58,  1004,  0,  0,  -1,  -9,  -25,  -40
2482092, 1710335714, "2024/3/13 13:15:14",  10,  -59,  1001,  0,  0,  -1,  -10,  -26,  -39
2482292, 1710335714, "2024/3/13 13:15:14",  4,  -57,  1002,  0,  0,  -1,  -10,  -26,  -39
2482492, 1710335714, "2024/3/13 13:15:14",  6,  -58,  1004,  0,  0,  -1,  -10,  -27,  -37
2482692, 1710335715, "2024/3/13 13:15:15",  9,  -55,  1007,  0,  0,  -1,  -8,  -27,  -41
2482892, 1710335715, "2024/3/13 13:15:15",  4,  -58,  1003,  0,  0,  -1,  -11,  -27,  -39
2483092, 1710335715, "2024/3/13 13:15:15",  5,  -58,  1000,  0,  0,  0,  -11,  -27,  -39
2483292, 1710335715, "2024/3/13 13:15:15",  3,  -60,  1005,  0,  0,  0,  -11,  -26,  -39
2483492, 1710335715, "2024/3/13 13:15:15",  7,  -56,  1003,  0,  0,  0,  -10,  -26,  -40
2483692, 1710335716, "2024/3/13 13:15:16",  8,  -57,  1005,  0,  0,  -1,  -8,  -25,  -39
2483892, 1710335716, "2024/3/13 13:15:16",  3,  -62,  1007,  0,  0,  0,  -9,  -27,  -38
2484092, 1710335716, "2024/3/13 13:15:16",  4,  -59,  1005,  0,  0,  -1,  -9,  -25,  -40
2484292, 1710335716, "2024/3/13 13:15:16",  6,  -63,  1003,  0,  0,  -1,  -9,  -26,  -39
2484492, 1710335716, "2024/3/13 13:15:16",  7,  -59,  1000,  0,  -1,  -1,  -8,  -28,  -38
2484692, 1710335717, "2024/3/13 13:15:17",  9,  -60,  1000,  0,  -1,  -1,  -11,  -27,  -37
2484892, 1710335717, "2024/3/13 13:15:17",  6,  -62,  1002,  0,  0,  -1,  -10,  -26,  -39
2485092, 1710335717, "2024/3/13 13:15:17",  2,  -59,  1002,  0,  0,  0,  -10,  -25,  -39
2485292, 1710335717, "2024/3/13 13:15:17",  5,  -62,  1001,  0,  0,  0,  -10,  -26,  -39
2485492, 1710335717, "2024/3/13 13:15:17",  7,  -64,  1004,  0,  0,  -1,  -10,  -25,  -38
2485692, 1710335718, "2024/3/13 13:15:18",  6,  -58,  1006,  0,  -1,  0,  -10,  -26,  -39
2485892, 1710335718, "2024/3/13 13:15:18",  7,  -61,  1006,  0,  -1,  -1,  -9,  -27,  -39
2486092, 1710335718, "2024/3/13 13:15:18",  3,  -60,  1002,  0,  0,  0,  -11,  -25,  -40
2486292, 1710335718, "2024/3/13 13:15:18",  8,  -60,  1003,  0,  0,  -1,  -11,  -27,  -39
2486492, 1710335718, "2024/3/13 13:15:18",  5,  -58,  1002,  0,  0,  -1,  -9,  -26,  -38
2486692, 1710335719, "2024/3/13 13:15:19",  5,  -55,  1003,  0,  0,  0,  -9,  -27,  -39
2486892, 1710335719, "2024/3/13 13:15:19",  7,  -52,  998,  0,  0,  0,  -11,  -26,  -40
2487092, 1710335719, "2024/3/13 13:15:19",  6,  -55,  1001,  0,  0,  -1,  -10,  -25,  -39
2487292, 1710335719, "2024/3/13 13:15:19",  7,  -58,  1000,  0,  0,  -1,  -10,  -26,  -39
2487492, 1710335719, "2024/3/13 13:15:19",  6,  -56,  1003,  0,  0,  0,  -10,  -28,  -39
2487692, 1710335720, "2024/3/13 13:15:20",  4,  -66,  1000,  0,  0,  -1,  -10,  -27,  -39
2487892, 1710335720, "2024/3/13 13:15:20",  3,  -58,  1002,  0,  -1,  -1,  -10,  -25,  -38
2488092, 1710335720, "2024/3/13 13:15:20",  9,  -55,  1006,  0,  0,  -1,  -11,  -28,  -39
2488292, 1710335720, "2024/3/13 13:15:20",  11,  -62,  1003,  0,  0,  -1,  -11,  -27,  -39
2488492, 1710335720, "2024/3/13 13:15:20",  7,  -62,  1002,  0,  0,  -1,  -10,  -26,  -39
2488692, 1710335721, "2024/3/13 13:15:21",  7,  -55,  1002,  0,  0,  -1,  -11,  -27,  -40
2488892, 1710335721, "2024/3/13 13:15:21",  6,  -62,  1002,  0,  0,  0,  -9,  -28,  -39
2489092, 1710335721, "2024/3/13 13:15:21",  7,  -58,  1003,  0,  0,  -1,  -10,  -27,  -39
2489292, 1710335721, "2024/3/13 13:15:21",  6,  -59,  1002,  0,  0,  0,  -11,  -26,  -38
2489492, 1710335722, "2024/3/13 13:15:22",  5,  -64,  998,  0,  0,  -1,  -10,  -25,  -37
2489692, 1710335722, "2024/3/13 13:15:22",  5,  -61,  1001,  0,  0,  -1,  -11,  -26,  -37
2489892, 1710335722, "2024/3/13 13:15:22",  11,  -58,  1008,  0,  0,  -1,  -11,  -27,  -38
2490092, 1710335722, "2024/3/13 13:15:22",  12,  -61,  1001,  0,  0,  -1,  -9,  -26,  -40
2490292, 1710335722, "2024/3/13 13:15:22",  7,  -64,  1006,  0,  0,  -1,  -11,  -26,  -38
2490492, 1710335723, "2024/3/13 13:15:23",  6,  -56,  1007,  0,  0,  -1,  -10,  -26,  -39
2490692, 1710335723, "2024/3/13 13:15:23",  0,  -61,  1010,  0,  0,  -1,  -11,  -27,  -40
2490892, 1710335723, "2024/3/13 13:15:23",  8,  -52,  1002,  0,  -1,  0,  -10,  -27,  -39
2491092, 1710335723, "2024/3/13 13:15:23",  5,  -62,  1007,  0,  -1,  -1,  -9,  -26,  -41
2491292, 1710335723, "2024/3/13 13:15:23",  6,  -57,  1006,  0,  0,  -1,  -10,  -26,  -40
2491492, 1710335724, "2024/3/13 13:15:24",  6,  -62,  1001,  0,  0,  -1,  -11,  -27,  -39
2491692, 1710335724, "2024/3/13 13:15:24",  3,  -56,  1004,  0,  0,  -1,  -9,  -25,  -40
2491892, 1710335724, "2024/3/13 13:15:24",  5,  -56,  1002,  0,  0,  0,  -10,  -26,  -38
2492092, 1710335724, "2024/3/13 13:15:24",  6,  -55,  1006,  0,  0,  0,  -10,  -25,  -38
2492292, 1710335724, "2024/3/13 13:15:24",  6,  -58,  1004,  0,  -1,  -1,  -11,  -25,  -40
2492492, 1710335725, "2024/3/13 13:15:25",  6,  -57,  1005,  0,  -1,  -1,  -11,  -27,  -38
2492692, 1710335725, "2024/3/13 13:15:25",  11,  -56,  1004,  0,  0,  -1,  -10,  -27,  -38
2492892, 1710335725, "2024/3/13 13:15:25",  2,  -56,  1002,  0,  0,  0,  -11,  -27,  -37
2493092, 1710335725, "2024/3/13 13:15:25",  7,  -58,  1004,  0,  0,  0,  -10,  -28,  -40
2493292, 1710335725, "2024/3/13 13:15:25",  6,  -55,  1000,  0,  0,  0,  -11,  -27,  -39
2493492, 1710335726, "2024/3/13 13:15:26",  0,  -54,  1003,  0,  0,  0,  -11,  -28,  -39
2493692, 1710335726, "2024/3/13 13:15:26",  8,  -57,  1004,  0,  0,  -1,  -10,  -26,  -38
2493892, 1710335726, "2024/3/13 13:15:26",  7,  -56,  1003,  0,  0,  -1,  -10,  -25,  -39
2494092, 1710335726, "2024/3/13 13:15:26",  6,  -53,  1001,  0,  0,  -1,  -9,  -26,  -39
2494292, 1710335726, "2024/3/13 13:15:26",  3,  -59,  1004,  0,  0,  0,  -10,  -25,  -39
2494492, 1710335727, "2024/3/13 13:15:27",  4,  -57,  1006,  0,  0,  -1,  -10,  -27,  -37
2494692, 1710335727, "2024/3/13 13:15:27",  7,  -59,  1002,  0,  0,  0,  -10,  -27,  -40
2494892, 1710335727, "2024/3/13 13:15:27",  4,  -55,  1005,  0,  0,  0,  -10,  -28,  -39
2495092, 1710335727, "2024/3/13 13:15:27",  8,  -61,  1003,  1,  0,  0,  -10,  -27,  -40
2495292, 1710335727, "2024/3/13 13:15:27",  2,  -59,  1000,  0,  -1,  -1,  -12,  -27,  -39
2495492, 1710335728, "2024/3/13 13:15:28",  7,  -63,  1006,  0,  0,  0,  -9,  -25,  -39
2495692, 1710335728, "2024/3/13 13:15:28",  3,  -58,  1005,  0,  0,  -1,  -11,  -25,  -38
2495892, 1710335728, "2024/3/13 13:15:28",  7,  -60,  1004,  0,  0,  0,  -12,  -26,  -39
2496092, 1710335728, "2024/3/13 13:15:28",  7,  -57,  1002,  0,  -1,  0,  -10,  -26,  -39
2496292, 1710335728, "2024/3/13 13:15:28",  6,  -53,  1002,  0,  0,  -1,  -10,  -26,  -39
2496492, 1710335729, "2024/3/13 13:15:29",  6,  -59,  998,  0,  0,  0,  -11,  -27,  -39
2496692, 1710335729, "2024/3/13 13:15:29",  9,  -59,  1000,  0,  0,  0,  -10,  -28,  -39
2496892, 1710335729, "2024/3/13 13:15:29",  -9,  -66,  1004,  0,  0,  -1,  -12,  -27,  -38
2497092, 1710335729, "2024/3/13 13:15:29",  -6,  -66,  999,  0,  0,  -1,  -11,  -25,  -39
2497292, 1710335729, "2024/3/13 13:15:29",  5,  -50,  1002,  0,  0,  -1,  -11,  -26,  -40
2497492, 1710335730, "2024/3/13 13:15:30",  3,  -51,  1003,  0,  0,  -1,  -10,  -27,  -40
2497692, 1710335730, "2024/3/13 13:15:30",  4,  -54,  1004,  0,  0,  -1,  -9,  -25,  -39
2497892, 1710335730, "2024/3/13 13:15:30",  1,  -58,  1003,  0,  0,  0,  -9,  -26,  -40
2498092, 1710335730, "2024/3/13 13:15:30",  6,  -55,  1006,  0,  0,  0,  -11,  -26,  -40
2498292, 1710335730, "2024/3/13 13:15:30",  4,  -50,  1007,  0,  0,  -1,  -10,  -27,  -40
2498492, 1710335731, "2024/3/13 13:15:31",  3,  -57,  1000,  0,  0,  -1,  -11,  -26,  -39
2498692, 1710335731, "2024/3/13 13:15:31",  5,  -59,  1004,  0,  0,  0,  -11,  -26,  -40
2498892, 1710335731, "2024/3/13 13:15:31",  1,  -49,  998,  1,  0,  0,  -8,  -26,  -39
2499092, 1710335731, "2024/3/13 13:15:31",  1,  -54,  1002,  0,  0,  0,  -10,  -26,  -39
2499292, 1710335731, "2024/3/13 13:15:31",  5,  -62,  1010,  0,  -1,  -1,  -9,  -26,  -40
2499492, 1710335732, "2024/3/13 13:15:32",  1,  -56,  1006,  0,  0,  0,  -9,  -25,  -39
2499692, 1710335732, "2024/3/13 13:15:32",  6,  -57,  1000,  0,  0,  -1,  -9,  -26,  -39
2499892, 1710335732, "2024/3/13 13:15:32",  4,  -51,  1003,  0,  0,  0,  -9,  -25,  -39
2500092, 1710335732, "2024/3/13 13:15:32",  -11,  -60,  995,  0,  -1,  0,  -12,  -27,  -40
2500292, 1710335732, "2024/3/13 13:15:32",  10,  -51,  1006,  0,  0,  -1,  -11,  -24,  -39
2500492, 1710335733, "2024/3/13 13:15:33",  0,  -63,  1001,  0,  1,  -1,  -9,  -25,  -39
2500692, 1710335733, "2024/3/13 13:15:33",  1,  -56,  1004,  0,  0,  -1,  -12,  -26,  -37
2500892, 1710335733, "2024/3/13 13:15:33",  0,  -67,  1001,  0,  0,  0,  -11,  -27,  -38
2501092, 1710335733, "2024/3/13 13:15:33",  2,  -61,  1003,  0,  0,  -1,  -10,  -26,  -35
2501292, 1710335733, "2024/3/13 13:15:33",  4,  -58,  1006,  0,  0,  -1,  -11,  -27,  -36
2501492, 1710335734, "2024/3/13 13:15:34",  1,  -57,  1003,  0,  0,  -1,  -11,  -25,  -36
2501692, 1710335734, "2024/3/13 13:15:34",  6,  -55,  1003,  0,  -1,  0,  -10,  -27,  -37
2501892, 1710335734, "2024/3/13 13:15:34",  4,  -55,  1003,  0,  0,  0,  -10,  -26,  -37
2502092, 1710335734, "2024/3/13 13:15:34",  7,  -55,  1003,  0,  0,  -1,  -10,  -26,  -37
2502292, 1710335734, "2024/3/13 13:15:34",  8,  -61,  1006,  0,  0,  -1,  -11,  -26,  -37
2502492, 1710335735, "2024/3/13 13:15:35",  3,  -53,  1004,  0,  0,  -1,  -10,  -27,  -36
2502692, 1710335735, "2024/3/13 13:15:35",  4,  -54,  1003,  0,  0,  -1,  -11,  -25,  -36
2502892, 1710335735, "2024/3/13 13:15:35",  3,  -57,  1003,  0,  0,  0,  -11,  -27,  -36
2503092, 1710335735, "2024/3/13 13:15:35",  9,  -50,  1006,  0,  0,  -1,  -9,  -27,  -37
2503292, 1710335735, "2024/3/13 13:15:35",  -9,  -63,  974,  1,  0,  0,  -10,  -26,  -36
2503492, 1710335736, "2024/3/13 13:15:36",  9,  -52,  1020,  0,  -1,  -1,  -10,  -26,  -37
2503692, 1710335736, "2024/3/13 13:15:36",  5,  -60,  1002,  0,  0,  -1,  -11,  -25,  -36
2503892, 1710335736, "2024/3/13 13:15:36",  5,  -50,  1002,  0,  0,  -1,  -9,  -27,  -38
2504092, 1710335736, "2024/3/13 13:15:36",  5,  -54,  1003,  0,  0,  -1,  -11,  -25,  -37
2504292, 1710335736, "2024/3/13 13:15:36",  4,  -60,  1005,  0,  -1,  -1,  -11,  -26,  -36
2504492, 1710335737, "2024/3/13 13:15:37",  4,  -51,  1003,  0,  0,  0,  -10,  -27,  -36
2504692, 1710335737, "2024/3/13 13:15:37",  4,  -64,  1004,  0,  0,  -1,  -10,  -26,  -36
2504892, 1710335737, "2024/3/13 13:15:37",  3,  -55,  1001,  0,  0,  -1,  -10,  -28,  -36
2505092, 1710335737, "2024/3/13 13:15:37",  7,  -52,  1004,  0,  0,  0,  -10,  -27,  -37
2505292, 1710335737, "2024/3/13 13:15:37",  4,  -53,  1008,  0,  0,  0,  -10,  -26,  -36
2505492, 1710335738, "2024/3/13 13:15:38",  8,  -57,  1002,  0,  0,  -1,  -11,  -25,  -35
2505692, 1710335738, "2024/3/13 13:15:38",  4,  -62,  1004,  0,  -1,  -1,  -11,  -25,  -35
2505892, 1710335738, "2024/3/13 13:15:38",  4,  -58,  1003,  0,  0,  -1,  -10,  -25,  -35
2506092, 1710335738, "2024/3/13 13:15:38",  8,  -62,  1005,  0,  0,  0,  -11,  -26,  -35
2506292, 1710335738, "2024/3/13 13:15:38",  10,  -58,  1002,  0,  0,  0,  -10,  -26,  -36
2506492, 1710335739, "2024/3/13 13:15:39",  1,  -63,  1006,  0,  0,  0,  -11,  -27,  -36
2506692, 1710335739, "2024/3/13 13:15:39",  4,  -54,  1003,  0,  0,  0,  -11,  -25,  -37
2506892, 1710335739, "2024/3/13 13:15:39",  2,  -60,  1004,  0,  0,  0,  -12,  -27,  -36
2507092, 1710335739, "2024/3/13 13:15:39",  0,  -59,  1001,  0,  -1,  0,  -10,  -26,  -36
2507292, 1710335739, "2024/3/13 13:15:39",  5,  -61,  1003,  0,  0,  0,  -9,  -27,  -37
2507492, 1710335740, "2024/3/13 13:15:40",  4,  -54,  1003,  0,  0,  0,  -11,  -27,  -36
2507692, 1710335740, "2024/3/13 13:15:40",  6,  -57,  1000,  0,  -1,  -1,  -12,  -27,  -36
2507892, 1710335740, "2024/3/13 13:15:40",  5,  -55,  1002,  0,  0,  0,  -11,  -26,  -37
2508092, 1710335740, "2024/3/13 13:15:40",  3,  -59,  1004,  0,  -1,  -1,  -12,  -27,  -37
2508292, 1710335740, "2024/3/13 13:15:40",  5,  -57,  1001,  0,  0,  -1,  -12,  -28,  -37
2508492, 1710335741, "2024/3/13 13:15:41",  4,  -61,  1001,  0,  -1,  -1,  -12,  -25,  -36
2508692, 1710335741, "2024/3/13 13:15:41",  4,  -58,  1005,  0,  0,  -1,  -10,  -26,  -36
2508892, 1710335741, "2024/3/13 13:15:41",  6,  -59,  1002,  0,  0,  -1,  -10,  -25,  -36
2509092, 1710335741, "2024/3/13 13:15:41",  4,  -54,  1006,  0,  0,  0,  -10,  -28,  -36
2509292, 1710335741, "2024/3/13 13:15:41",  4,  -61,  1004,  0,  0,  -1,  -9,  -25,  -34
2509492, 1710335742, "2024/3/13 13:15:42",  0,  -57,  1007,  0,  0,  0,  -10,  -27,  -36
2509692, 1710335742, "2024/3/13 13:15:42",  5,  -60,  1006,  0,  0,  -1,  -10,  -26,  -36
2509892, 1710335742, "2024/3/13 13:15:42",  -1,  -59,  1005,  0,  0,  -1,  -10,  -25,  -36
2510092, 1710335742, "2024/3/13 13:15:42",  -7,  -64,  993,  0,  -1,  -1,  -11,  -26,  -36
2510292, 1710335742, "2024/3/13 13:15:42",  1,  -61,  1001,  0,  0,  0,  -10,  -26,  -36
2510492, 1710335743, "2024/3/13 13:15:43",  6,  -58,  1006,  0,  0,  -1,  -10,  -26,  -36
2510692, 1710335743, "2024/3/13 13:15:43",  3,  -63,  1003,  0,  0,  0,  -9,  -25,  -36
2510892, 1710335743, "2024/3/13 13:15:43",  5,  -59,  1002,  0,  0,  0,  -11,  -26,  -37
2511092, 1710335743, "2024/3/13 13:15:43",  3,  -56,  1002,  0,  0,  0,  -11,  -26,  -37
2511292, 1710335743, "2024/3/13 13:15:43",  8,  -62,  1003,  0,  0,  -1,  -8,  -28,  -36
2511492, 1710335744, "2024/3/13 13:15:44",  0,  -61,  1002,  0,  0,  0,  -12,  -25,  -37
2511692, 1710335744, "2024/3/13 13:15:44",  9,  -57,  1002,  0,  0,  -1,  -10,  -28,  -36
2511892, 1710335744, "2024/3/13 13:15:44",  7,  -58,  1002,  0,  0,  0,  -11,  -26,  -37
2512092, 1710335744, "2024/3/13 13:15:44",  6,  -58,  1004,  0,  0,  0,  -11,  -25,  -36
2512292, 1710335744, "2024/3/13 13:15:44",  0,  -60,  1002,  0,  0,  -1,  -11,  -27,  -36
2512492, 1710335745, "2024/3/13 13:15:45",  5,  -57,  1003,  0,  -1,  -1,  -12,  -28,  -36
2512692, 1710335745, "2024/3/13 13:15:45",  3,  -58,  1001,  0,  -1,  0,  -11,  -25,  -34
2512892, 1710335745, "2024/3/13 13:15:45",  6,  -57,  999,  0,  -1,  -1,  -10,  -28,  -36
2513092, 1710335745, "2024/3/13 13:15:45",  2,  -58,  1003,  0,  0,  -1,  -12,  -27,  -36
2513292, 1710335745, "2024/3/13 13:15:45",  7,  -56,  1003,  0,  0,  0,  -10,  -26,  -36
2513492, 1710335746, "2024/3/13 13:15:46",  8,  -51,  1007,  0,  -1,  0,  -11,  -27,  -36
2513692, 1710335746, "2024/3/13 13:15:46",  7,  -58,  1007,  0,  0,  0,  -11,  -26,  -37
2513892, 1710335746, "2024/3/13 13:15:46",  6,  -60,  1003,  0,  -1,  0,  -10,  -27,  -36
2514092, 1710335746, "2024/3/13 13:15:46",  8,  -58,  1006,  0,  0,  -1,  -12,  -27,  -34
2514292, 1710335746, "2024/3/13 13:15:46",  5,  -59,  1005,  0,  0,  0,  -10,  -27,  -34
2514492, 1710335747, "2024/3/13 13:15:47",  4,  -56,  1002,  0,  0,  -1,  -11,  -27,  -36
2514692, 1710335747, "2024/3/13 13:15:47",  7,  -55,  1004,  0,  0,  0,  -9,  -26,  -36
2514892, 1710335747, "2024/3/13 13:15:47",  3,  -51,  1007,  0,  0,  -1,  -9,  -27,  -37
2515092, 1710335747, "2024/3/13 13:15:47",  6,  -57,  1000,  0,  0,  0,  -11,  -24,  -36
2515292, 1710335747, "2024/3/13 13:15:47",  5,  -55,  1002,  0,  0,  -1,  -9,  -26,  -33
2515492, 1710335748, "2024/3/13 13:15:48",  5,  -57,  1003,  0,  0,  -1,  -10,  -28,  -38
2515692, 1710335748, "2024/3/13 13:15:48",  1,  -59,  1005,  0,  0,  -1,  -9,  -27,  -36
2515892, 1710335748, "2024/3/13 13:15:48",  5,  -58,  1003,  0,  0,  0,  -11,  -27,  -37
2516092, 1710335748, "2024/3/13 13:15:48",  4,  -54,  1006,  0,  0,  -1,  -10,  -27,  -36
2516292, 1710335748, "2024/3/13 13:15:48",  5,  -56,  1003,  0,  0,  -1,  -11,  -26,  -36
2516492, 1710335749, "2024/3/13 13:15:49",  6,  -57,  1004,  0,  0,  0,  -10,  -26,  -36
2516692, 1710335749, "2024/3/13 13:15:49",  4,  -55,  1002,  0,  0,  0,  -10,  -28,  -37
2516892, 1710335749, "2024/3/13 13:15:49",  3,  -59,  1002,  0,  0,  -1,  -10,  -27,  -36
2517092, 1710335749, "2024/3/13 13:15:49",  4,  -54,  1003,  0,  0,  -1,  -11,  -26,  -35
2517292, 1710335749, "2024/3/13 13:15:49",  4,  -60,  1001,  0,  0,  -1,  -10,  -26,  -36
2517492, 1710335750, "2024/3/13 13:15:50",  0,  -56,  1004,  0,  0,  0,  -12,  -26,  -37
2517692, 1710335750, "2024/3/13 13:15:50",  4,  -62,  1007,  0,  0,  0,  -12,  -27,  -36
2517892, 1710335750, "2024/3/13 13:15:50",  4,  -55,  1006,  0,  0,  -1,  -9,  -26,  -36
2518092, 1710335750, "2024/3/13 13:15:50",  6,  -56,  1000,  0,  -1,  -1,  -11,  -26,  -36
2518292, 1710335750, "2024/3/13 13:15:50",  2,  -58,  1002,  0,  0,  -1,  -10,  -28,  -37
2518492, 1710335751, "2024/3/13 13:15:51",  9,  -58,  1000,  0,  -1,  0,  -12,  -26,  -37
2518692, 1710335751, "2024/3/13 13:15:51",  4,  -56,  1006,  0,  0,  -1,  -11,  -26,  -37
2518892, 1710335751, "2024/3/13 13:15:51",  12,  -58,  1005,  0,  0,  0,  -10,  -26,  -35
2519092, 1710335751, "2024/3/13 13:15:51",  9,  -63,  1004,  0,  0,  -1,  -11,  -27,  -38
2519292, 1710335751, "2024/3/13 13:15:51",  9,  -55,  1005,  0,  0,  -1,  -11,  -25,  -35
2519492, 1710335752, "2024/3/13 13:15:52",  10,  -55,  1003,  0,  0,  -1,  -11,  -27,  -37
2519692, 1710335752, "2024/3/13 13:15:52",  7,  -61,  1006,  0,  0,  -1,  -12,  -25,  -37
2519892, 1710335752, "2024/3/13 13:15:52",  7,  -57,  1005,  0,  0,  -1,  -11,  -26,  -36
2520092, 1710335752, "2024/3/13 13:15:52",  5,  -61,  1001,  0,  0,  0,  -11,  -25,  -36
2520292, 1710335752, "2024/3/13 13:15:52",  1,  -51,  1000,  0,  0,  -1,  -10,  -26,  -36
2520492, 1710335753, "2024/3/13 13:15:53",  7,  -60,  1003,  0,  0,  0,  -10,  -27,  -34
2520692, 1710335753, "2024/3/13 13:15:53",  7,  -56,  1006,  0,  0,  0,  -11,  -27,  -36
2520892, 1710335753, "2024/3/13 13:15:53",  9,  -61,  1002,  0,  0,  -1,  -12,  -26,  -36
2521092, 1710335753, "2024/3/13 13:15:53",  4,  -59,  1005,  0,  0,  0,  -10,  -27,  -36
2521292, 1710335753, "2024/3/13 13:15:53",  6,  -57,  1002,  0,  0,  0,  -10,  -27,  -37
2521492, 1710335754, "2024/3/13 13:15:54",  6,  -57,  1000,  0,  0,  -1,  -10,  -27,  -36
2521692, 1710335754, "2024/3/13 13:15:54",  7,  -60,  1005,  0,  0,  -1,  -11,  -27,  -37
2521892, 1710335754, "2024/3/13 13:15:54",  5,  -57,  1002,  0,  0,  -1,  -12,  -25,  -35
2522092, 1710335754, "2024/3/13 13:15:54",  7,  -54,  1004,  0,  -1,  0,  -10,  -25,  -37
2522292, 1710335754, "2024/3/13 13:15:54",  7,  -53,  1004,  0,  0,  -1,  -11,  -26,  -36
2522492, 1710335755, "2024/3/13 13:15:55",  5,  -54,  1004,  0,  0,  -1,  -12,  -26,  -37
2522692, 1710335755, "2024/3/13 13:15:55",  21,  -47,  1000,  0,  0,  0,  -10,  -27,  -37
2522892, 1710335755, "2024/3/13 13:15:55",  14,  -52,  1002,  0,  0,  0,  -9,  -27,  -36
2523092, 1710335755, "2024/3/13 13:15:55",  14,  -60,  1004,  0,  0,  -1,  -11,  -28,  -36
2523292, 1710335755, "2024/3/13 13:15:55",  9,  -56,  1004,  0,  0,  -1,  -11,  -25,  -38
2523492, 1710335756, "2024/3/13 13:15:56",  5,  -56,  1005,  0,  0,  -1,  -9,  -28,  -36
2523692, 1710335756, "2024/3/13 13:15:56",  3,  -53,  1003,  0,  0,  -1,  -9,  -27,  -36
2523892, 1710335756, "2024/3/13 13:15:56",  7,  -56,  1007,  0,  0,  -1,  -10,  -27,  -36
2524092, 1710335756, "2024/3/13 13:15:56",  5,  -55,  1002,  0,  0,  0,  -11,  -26,  -37
2524292, 1710335756, "2024/3/13 13:15:56",  2,  -53,  1000,  0,  -1,  -1,  -11,  -27,  -36
2524492, 1710335757, "2024/3/13 13:15:57",  7,  -59,  1003,  0,  0,  0,  -11,  -26,  -38
2524692, 1710335757, "2024/3/13 13:15:57",  40,  -73,  1017,  1,  0,  -1,  -10,  -26,  -36
2524892, 1710335757, "2024/3/13 13:15:57",  9,  -59,  1003,  0,  0,  -1,  -10,  -28,  -37
2525092, 1710335757, "2024/3/13 13:15:57",  6,  -51,  1002,  0,  0,  -1,  -9,  -25,  -36
2525292, 1710335757, "2024/3/13 13:15:57",  5,  -58,  1003,  0,  0,  -1,  -11,  -26,  -37
2525492, 1710335758, "2024/3/13 13:15:58",  5,  -64,  1006,  0,  0,  -1,  -11,  -28,  -35
2525692, 1710335758, "2024/3/13 13:15:58",  8,  -56,  1003,  0,  -1,  -1,  -12,  -27,  -36
2525892, 1710335758, "2024/3/13 13:15:58",  4,  -54,  1001,  0,  -1,  -1,  -11,  -27,  -39
2526092, 1710335758, "2024/3/13 13:15:58",  7,  -59,  1002,  0,  -1,  -1,  -12,  -26,  -37
2526292, 1710335758, "2024/3/13 13:15:58",  6,  -57,  1004,  0,  0,  0,  -10,  -26,  -36
2526492, 1710335759, "2024/3/13 13:15:59",  3,  -58,  1005,  0,  0,  -1,  -10,  -26,  -36
2526692, 1710335759, "2024/3/13 13:15:59",  7,  -61,  1006,  0,  0,  -1,  -11,  -25,  -37
2526892, 1710335759, "2024/3/13 13:15:59",  2,  -62,  1004,  0,  0,  0,  -11,  -27,  -37
2527092, 1710335759, "2024/3/13 13:15:59",  0,  -56,  1005,  0,  0,  0,  -11,  -26,  -36
2527292, 1710335759, "2024/3/13 13:15:59",  5,  -57,  1002,  0,  0,  0,  -9,  -27,  -36
2527492, 1710335760, "2024/3/13 13:16:0",  3,  -55,  1006,  0,  0,  -1,  -11,  -27,  -36
2527692, 1710335760, "2024/3/13 13:16:0",  3,  -57,  1001,  0,  0,  -1,  -11,  -26,  -36
2527892, 1710335760, "2024/3/13 13:16:0",  8,  -57,  1002,  0,  -1,  0,  -10,  -25,  -37
2528092, 1710335760, "2024/3/13 13:16:0",  6,  -53,  1005,  0,  0,  -1,  -11,  -27,  -37
2528292, 1710335760, "2024/3/13 13:16:0",  4,  -57,  1005,  0,  0,  -1,  -11,  -28,  -36
2528492, 1710335761, "2024/3/13 13:16:1",  5,  -56,  1007,  0,  0,  -1,  -10,  -26,  -37
2528692, 1710335761, "2024/3/13 13:16:1",  9,  -61,  1003,  0,  0,  0,  -11,  -27,  -38
2528892, 1710335761, "2024/3/13 13:16:1",  11,  -59,  1003,  0,  0,  -1,  -10,  -25,  -36
2529092, 1710335761, "2024/3/13 13:16:1",  7,  -55,  1003,  0,  0,  0,  -10,  -26,  -36
2529292, 1710335761, "2024/3/13 13:16:1",  6,  -56,  1003,  0,  0,  0,  -11,  -27,  -36
2529492, 1710335762, "2024/3/13 13:16:2",  1,  -63,  1003,  0,  0,  0,  -10,  -27,  -37
2529692, 1710335762, "2024/3/13 13:16:2",  5,  -56,  1003,  0,  0,  -1,  -9,  -27,  -37
2529892, 1710335762, "2024/3/13 13:16:2",  3,  -54,  1004,  0,  -1,  -1,  -9,  -26,  -36
2530092, 1710335762, "2024/3/13 13:16:2",  5,  -53,  1005,  0,  -1,  -1,  -11,  -27,  -36
2530292, 1710335762, "2024/3/13 13:16:2",  4,  -61,  1003,  0,  0,  -1,  -10,  -26,  -36
2530492, 1710335763, "2024/3/13 13:16:3",  8,  -60,  1005,  0,  0,  0,  -10,  -26,  -37
2530692, 1710335763, "2024/3/13 13:16:3",  5,  -64,  1007,  0,  0,  -1,  -10,  -26,  -39
2530892, 1710335763, "2024/3/13 13:16:3",  1,  -60,  1005,  0,  0,  0,  -11,  -25,  -37
2531092, 1710335763, "2024/3/13 13:16:3",  5,  -59,  1007,  0,  -1,  0,  -10,  -26,  -36
2531292, 1710335763, "2024/3/13 13:16:3",  9,  -50,  1000,  0,  -1,  -1,  -11,  -27,  -35
2531492, 1710335764, "2024/3/13 13:16:4",  5,  -63,  1007,  0,  0,  -1,  -11,  -27,  -37
2531692, 1710335764, "2024/3/13 13:16:4",  6,  -57,  1003,  0,  0,  0,  -11,  -26,  -37
2531892, 1710335764, "2024/3/13 13:16:4",  7,  -52,  1004,  0,  0,  -1,  -11,  -27,  -37
2532092, 1710335764, "2024/3/13 13:16:4",  6,  -54,  1004,  0,  0,  -1,  -10,  -26,  -37
2532292, 1710335764, "2024/3/13 13:16:4",  5,  -54,  1004,  0,  0,  -1,  -11,  -25,  -38
2532492, 1710335765, "2024/3/13 13:16:5",  5,  -55,  1002,  0,  0,  0,  -10,  -27,  -36
2532692, 1710335765, "2024/3/13 13:16:5",  3,  -62,  1002,  0,  -1,  -1,  -11,  -26,  -36
2532892, 1710335765, "2024/3/13 13:16:5",  3,  -59,  1003,  0,  0,  -1,  -10,  -27,  -37
2533092, 1710335765, "2024/3/13 13:16:5",  4,  -52,  1005,  0,  0,  -1,  -12,  -27,  -36
2533292, 1710335765, "2024/3/13 13:16:5",  0,  -59,  1007,  0,  0,  0,  -10,  -27,  -36
2533492, 1710335766, "2024/3/13 13:16:6",  7,  -57,  1001,  0,  0,  -1,  -11,  -26,  -36
2533692, 1710335766, "2024/3/13 13:16:6",  6,  -60,  1004,  0,  0,  0,  -10,  -26,  -35
2533892, 1710335766, "2024/3/13 13:16:6",  9,  -57,  1002,  0,  0,  -1,  -11,  -27,  -37
2534092, 1710335766, "2024/3/13 13:16:6",  5,  -55,  1005,  0,  0,  -1,  -10,  -25,  -37
2534292, 1710335766, "2024/3/13 13:16:6",  5,  -56,  1001,  0,  0,  -1,  -11,  -26,  -36
2534492, 1710335767, "2024/3/13 13:16:7",  3,  -57,  1002,  0,  0,  0,  -11,  -27,  -35
2534692, 1710335767, "2024/3/13 13:16:7",  6,  -51,  1006,  0,  0,  -1,  -10,  -27,  -36
2534892, 1710335767, "2024/3/13 13:16:7",  4,  -56,  1003,  0,  -1,  -1,  -9,  -25,  -36
2535092, 1710335767, "2024/3/13 13:16:7",  4,  -62,  1000,  0,  -1,  -1,  -11,  -27,  -37
2535292, 1710335767, "2024/3/13 13:16:7",  5,  -50,  1007,  0,  0,  -1,  -10,  -26,  -36
2535492, 1710335768, "2024/3/13 13:16:8",  7,  -55,  1001,  0,  0,  -1,  -10,  -28,  -36
2535692, 1710335768, "2024/3/13 13:16:8",  5,  -61,  1007,  0,  0,  0,  -10,  -26,  -37
2535892, 1710335768, "2024/3/13 13:16:8",  2,  -53,  1000,  0,  0,  -1,  -11,  -27,  -36
2536092, 1710335768, "2024/3/13 13:16:8",  4,  -58,  1002,  0,  0,  0,  -11,  -26,  -37
2536292, 1710335768, "2024/3/13 13:16:8",  9,  -57,  1000,  0,  -1,  0,  -9,  -25,  -36
2536492, 1710335769, "2024/3/13 13:16:9",  5,  -58,  1002,  0,  0,  0,  -11,  -26,  -37
2536692, 1710335769, "2024/3/13 13:16:9",  4,  -60,  1002,  0,  0,  -1,  -10,  -25,  -35
2536892, 1710335769, "2024/3/13 13:16:9",  7,  -54,  1003,  0,  0,  0,  -9,  -25,  -36
2537092, 1710335769, "2024/3/13 13:16:9",  7,  -58,  1003,  0,  0,  -1,  -11,  -25,  -37
2537292, 1710335769, "2024/3/13 13:16:9",  6,  -58,  1005,  0,  0,  -1,  -10,  -26,  -36
2537492, 1710335770, "2024/3/13 13:16:10",  2,  -63,  999,  0,  0,  0,  -11,  -27,  -36
2537692, 1710335770, "2024/3/13 13:16:10",  8,  -60,  1003,  0,  0,  0,  -10,  -26,  -38
2537892, 1710335770, "2024/3/13 13:16:10",  5,  -60,  1001,  0,  0,  0,  -11,  -25,  -37
2538092, 1710335770, "2024/3/13 13:16:10",  3,  -63,  1001,  0,  0,  0,  -11,  -25,  -37
2538292, 1710335770, "2024/3/13 13:16:10",  1,  -57,  1003,  0,  0,  -1,  -10,  -24,  -36
2538492, 1710335771, "2024/3/13 13:16:11",  3,  -57,  1004,  0,  -1,  -1,  -11,  -27,  -37
2538692, 1710335771, "2024/3/13 13:16:11",  8,  -57,  1000,  0,  0,  0,  -11,  -25,  -37
2538892, 1710335771, "2024/3/13 13:16:11",  3,  -57,  1002,  0,  0,  -1,  -11,  -26,  -38
2539092, 1710335771, "2024/3/13 13:16:11",  3,  -56,  1004,  0,  0,  0,  -11,  -26,  -37
2539292, 1710335771, "2024/3/13 13:16:11",  5,  -57,  1008,  0,  0,  -1,  -10,  -26,  -35
2539492, 1710335772, "2024/3/13 13:16:12",  5,  -60,  1005,  0,  0,  -1,  -11,  -25,  -38
2539692, 1710335772, "2024/3/13 13:16:12",  6,  -64,  1004,  0,  0,  -1,  -9,  -26,  -36
2539892, 1710335772, "2024/3/13 13:16:12",  5,  -54,  1002,  0,  0,  0,  -11,  -26,  -36
2540092, 1710335772, "2024/3/13 13:16:12",  9,  -60,  1004,  0,  0,  0,  -10,  -26,  -37
2540292, 1710335772, "2024/3/13 13:16:12",  1,  -60,  1001,  0,  0,  -1,  -12,  -25,  -38
2540492, 1710335773, "2024/3/13 13:16:13",  3,  -54,  1000,  0,  -1,  0,  -9,  -27,  -37
2540692, 1710335773, "2024/3/13 13:16:13",  5,  -62,  1004,  0,  0,  0,  -10,  -27,  -37
2540892, 1710335773, "2024/3/13 13:16:13",  9,  -56,  1002,  0,  0,  -1,  -10,  -26,  -38
2541092, 1710335773, "2024/3/13 13:16:13",  5,  -58,  1004,  0,  0,  -1,  -11,  -27,  -36
2541292, 1710335773, "2024/3/13 13:16:13",  8,  -57,  1005,  0,  0,  -1,  -11,  -27,  -37
2541492, 1710335774, "2024/3/13 13:16:14",  4,  -55,  1008,  0,  0,  0,  -9,  -26,  -37
2541692, 1710335774, "2024/3/13 13:16:14",  5,  -63,  1001,  0,  0,  -1,  -10,  -26,  -36
2541892, 1710335774, "2024/3/13 13:16:14",  6,  -56,  1002,  0,  0,  -1,  -11,  -27,  -37
2542092, 1710335774, "2024/3/13 13:16:14",  2,  -58,  1004,  0,  -1,  -1,  -10,  -26,  -37
2542292, 1710335774, "2024/3/13 13:16:14",  6,  -58,  1004,  0,  0,  -1,  -12,  -27,  -38
2542492, 1710335775, "2024/3/13 13:16:15",  5,  -58,  1006,  0,  0,  0,  -12,  -27,  -36
2542692, 1710335775, "2024/3/13 13:16:15",  4,  -60,  1000,  0,  0,  0,  -12,  -25,  -37
2542892, 1710335775, "2024/3/13 13:16:15",  8,  -62,  1002,  0,  0,  0,  -10,  -28,  -38
2543092, 1710335775, "2024/3/13 13:16:15",  6,  -62,  1002,  0,  0,  -1,  -12,  -27,  -37
2543292, 1710335775, "2024/3/13 13:16:15",  5,  -55,  1002,  0,  0,  0,  -10,  -26,  -37
2543492, 1710335776, "2024/3/13 13:16:16",  4,  -52,  1003,  0,  0,  -1,  -11,  -26,  -37
2543692, 1710335776, "2024/3/13 13:16:16",  6,  -60,  1003,  0,  0,  0,  -12,  -25,  -38
2543892, 1710335776, "2024/3/13 13:16:16",  6,  -56,  1003,  0,  0,  0,  -11,  -25,  -36
2544092, 1710335776, "2024/3/13 13:16:16",  5,  -62,  1003,  0,  0,  0,  -11,  -28,  -36
2544292, 1710335776, "2024/3/13 13:16:16",  15,  -57,  999,  0,  0,  -1,  -11,  -25,  -36
2544492, 1710335777, "2024/3/13 13:16:17",  2,  -55,  1000,  0,  0,  0,  -10,  -26,  -37
2544692, 1710335777, "2024/3/13 13:16:17",  2,  -55,  1003,  0,  0,  -1,  -9,  -26,  -35
2544892, 1710335777, "2024/3/13 13:16:17",  3,  -59,  1001,  0,  0,  0,  -11,  -27,  -37
2545092, 1710335777, "2024/3/13 13:16:17",  7,  -59,  1006,  0,  0,  0,  -11,  -26,  -37
2545292, 1710335777, "2024/3/13 13:16:17",  3,  -64,  1003,  0,  0,  0,  -11,  -28,  -36
2545492, 1710335778, "2024/3/13 13:16:18",  6,  -62,  1002,  0,  0,  -1,  -12,  -27,  -35
2545692, 1710335778, "2024/3/13 13:16:18",  2,  -56,  1002,  0,  -1,  0,  -11,  -26,  -35
2545892, 1710335778, "2024/3/13 13:16:18",  6,  -57,  1001,  0,  -1,  -1,  -9,  -25,  -36
2546092, 1710335778, "2024/3/13 13:16:18",  3,  -55,  1004,  0,  0,  -1,  -9,  -25,  -37
2546292, 1710335778, "2024/3/13 13:16:18",  7,  -58,  1001,  0,  0,  -1,  -11,  -27,  -38
2546492, 1710335779, "2024/3/13 13:16:19",  4,  -57,  1006,  0,  0,  -1,  -12,  -26,  -35
2546692, 1710335779, "2024/3/13 13:16:19",  6,  -53,  1002,  0,  0,  0,  -11,  -28,  -37
2546892, 1710335779, "2024/3/13 13:16:19",  4,  -53,  999,  0,  0,  0,  -11,  -26,  -36
2547092, 1710335779, "2024/3/13 13:16:19",  1,  -59,  1004,  0,  -1,  -1,  -10,  -26,  -37
2547292, 1710335779, "2024/3/13 13:16:19",  6,  -65,  1004,  0,  0,  -1,  -10,  -27,  -38
2547492, 1710335780, "2024/3/13 13:16:20",  0,  -60,  1006,  0,  0,  -1,  -11,  -26,  -36
2547692, 1710335780, "2024/3/13 13:16:20",  3,  -53,  1007,  0,  0,  -1,  -12,  -25,  -36
2547892, 1710335780, "2024/3/13 13:16:20",  2,  -53,  1005,  0,  0,  -1,  -11,  -27,  -37
2548092, 1710335780, "2024/3/13 13:16:20",  5,  -59,  1001,  0,  0,  -1,  -11,  -27,  -36
2548292, 1710335780, "2024/3/13 13:16:20",  2,  -54,  1002,  0,  0,  0,  -12,  -26,  -37
2548492, 1710335781, "2024/3/13 13:16:21",  3,  -59,  1003,  0,  0,  -1,  -11,  -25,  -37
2548692, 1710335781, "2024/3/13 13:16:21",  5,  -55,  1005,  0,  0,  -1,  -9,  -24,  -37
2548892, 1710335781, "2024/3/13 13:16:21",  6,  -52,  1005,  0,  0,  -1,  -9,  -26,  -36
2549092, 1710335781, "2024/3/13 13:16:21",  1,  -53,  1009,  0,  -1,  -1,  -11,  -26,  -35
2549292, 1710335781, "2024/3/13 13:16:21",  4,  -58,  1005,  0,  0,  0,  -11,  -26,  -36
2549492, 1710335782, "2024/3/13 13:16:22",  0,  -54,  1004,  0,  -1,  0,  -9,  -28,  -37
2549692, 1710335782, "2024/3/13 13:16:22",  8,  -56,  1002,  0,  0,  -1,  -10,  -25,  -36
2549892, 1710335782, "2024/3/13 13:16:22",  5,  -56,  1006,  0,  0,  -1,  -11,  -25,  -37
2550092, 1710335782, "2024/3/13 13:16:22",  6,  -65,  1006,  0,  0,  -1,  -12,  -26,  -36
2550292, 1710335782, "2024/3/13 13:16:22",  8,  -60,  1000,  0,  0,  0,  -12,  -25,  -35
2550492, 1710335783, "2024/3/13 13:16:23",  3,  -59,  1004,  0,  0,  -1,  -11,  -25,  -37
2550692, 1710335783, "2024/3/13 13:16:23",  4,  -61,  1002,  0,  0,  -1,  -11,  -25,  -36
2550892, 1710335783, "2024/3/13 13:16:23",  8,  -59,  1000,  0,  -1,  0,  -11,  -27,  -36
2551092, 1710335783, "2024/3/13 13:16:23",  6,  -60,  1004,  0,  0,  0,  -11,  -25,  -37
2551292, 1710335783, "2024/3/13 13:16:23",  2,  -58,  1001,  0,  0,  0,  -10,  -28,  -37
2551492, 1710335784, "2024/3/13 13:16:24",  5,  -62,  1005,  0,  0,  -1,  -10,  -27,  -36
2551692, 1710335784, "2024/3/13 13:16:24",  4,  -57,  1004,  0,  0,  -1,  -10,  -26,  -36
2551892, 1710335784, "2024/3/13 13:16:24",  2,  -56,  1003,  0,  0,  -1,  -10,  -26,  -37
2552092, 1710335784, "2024/3/13 13:16:24",  7,  -59,  1002,  0,  -1,  -1,  -13,  -26,  -37
2552292, 1710335784, "2024/3/13 13:16:24",  5,  -57,  1006,  0,  0,  -1,  -11,  -27,  -37
2552492, 1710335785, "2024/3/13 13:16:25",  2,  -61,  1002,  0,  -1,  -1,  -11,  -27,  -35
2552692, 1710335785, "2024/3/13 13:16:25",  3,  -60,  1006,  0,  0,  0,  -12,  -27,  -36
2552892, 1710335785, "2024/3/13 13:16:25",  5,  -63,  1004,  0,  0,  0,  -10,  -27,  -37
2553092, 1710335785, "2024/3/13 13:16:25",  6,  -60,  1003,  0,  0,  -1,  -10,  -25,  -37
2553292, 1710335785, "2024/3/13 13:16:25",  5,  -59,  1004,  0,  0,  0,  -10,  -28,  -36
2553492, 1710335786, "2024/3/13 13:16:26",  8,  -56,  1001,  0,  0,  -1,  -10,  -27,  -38
2553692, 1710335786, "2024/3/13 13:16:26",  5,  -59,  1001,  0,  -1,  0,  -9,  -26,  -37
2553892, 1710335786, "2024/3/13 13:16:26",  5,  -55,  1003,  0,  0,  0,  -13,  -26,  -37
2554092, 1710335786, "2024/3/13 13:16:26",  6,  -57,  1007,  0,  0,  -1,  -10,  -26,  -36
2554292, 1710335786, "2024/3/13 13:16:26",  4,  -60,  1003,  0,  0,  -1,  -10,  -27,  -39
2554492, 1710335787, "2024/3/13 13:16:27",  6,  -54,  1010,  0,  0,  -1,  -9,  -26,  -36
2554692, 1710335787, "2024/3/13 13:16:27",  6,  -63,  1004,  0,  0,  -1,  -10,  -26,  -36
2554892, 1710335787, "2024/3/13 13:16:27",  6,  -60,  1003,  0,  0,  0,  -11,  -27,  -36
2555092, 1710335787, "2024/3/13 13:16:27",  4,  -61,  1001,  0,  -1,  -1,  -10,  -25,  -37
2555292, 1710335787, "2024/3/13 13:16:27",  5,  -58,  1003,  0,  0,  0,  -11,  -27,  -36
2555492, 1710335788, "2024/3/13 13:16:28",  2,  -52,  1005,  0,  0,  -1,  -11,  -25,  -36
2555692, 1710335788, "2024/3/13 13:16:28",  5,  -59,  1004,  0,  0,  -1,  -11,  -27,  -36
2555892, 1710335788, "2024/3/13 13:16:28",  6,  -55,  1004,  0,  0,  0,  -10,  -25,  -37
2556092, 1710335788, "2024/3/13 13:16:28",  4,  -60,  1004,  0,  0,  0,  -10,  -26,  -35
2556292, 1710335788, "2024/3/13 13:16:28",  6,  -61,  1003,  0,  0,  -1,  -12,  -26,  -36
2556492, 1710335789, "2024/3/13 13:16:29",  5,  -55,  1001,  0,  -1,  0,  -11,  -26,  -36
2556692, 1710335789, "2024/3/13 13:16:29",  6,  -57,  1002,  0,  0,  0,  -12,  -26,  -36
2556892, 1710335789, "2024/3/13 13:16:29",  7,  -61,  1000,  0,  0,  -1,  -10,  -26,  -37
2557092, 1710335789, "2024/3/13 13:16:29",  2,  -54,  1003,  0,  0,  -1,  -10,  -27,  -36
2557292, 1710335789, "2024/3/13 13:16:29",  5,  -63,  1001,  0,  0,  0,  -11,  -28,  -35
2557492, 1710335790, "2024/3/13 13:16:30",  7,  -56,  1006,  0,  0,  0,  -10,  -27,  -37
2557692, 1710335790, "2024/3/13 13:16:30",  5,  -57,  1004,  0,  0,  0,  -9,  -25,  -36
2557892, 1710335790, "2024/3/13 13:16:30",  9,  -60,  1003,  0,  0,  0,  -9,  -26,  -36
2558092, 1710335790, "2024/3/13 13:16:30",  7,  -59,  1001,  0,  0,  0,  -11,  -29,  -36
2558292, 1710335790, "2024/3/13 13:16:30",  6,  -57,  1003,  0,  0,  -1,  -11,  -27,  -36
2558492, 1710335791, "2024/3/13 13:16:31",  3,  -56,  1003,  0,  0,  0,  -10,  -27,  -37
2558692, 1710335791, "2024/3/13 13:16:31",  1,  -59,  1007,  0,  0,  -1,  -11,  -27,  -36
2558892, 1710335791, "2024/3/13 13:16:31",  4,  -60,  1000,  0,  0,  0,  -10,  -26,  -36
2559092, 1710335791, "2024/3/13 13:16:31",  5,  -59,  1002,  0,  0,  -1,  -12,  -27,  -37
2559292, 1710335791, "2024/3/13 13:16:31",  8,  -57,  1003,  0,  0,  -1,  -12,  -28,  -35
2559492, 1710335792, "2024/3/13 13:16:32",  0,  -63,  1004,  0,  0,  0,  -9,  -26,  -36
2559692, 1710335792, "2024/3/13 13:16:32",  4,  -54,  1002,  0,  0,  -1,  -11,  -26,  -38
2559892, 1710335792, "2024/3/13 13:16:32",  7,  -58,  1004,  0,  -1,  -1,  -10,  -27,  -36
2560092, 1710335792, "2024/3/13 13:16:32",  5,  -57,  1006,  0,  0,  -1,  -10,  -26,  -36
2560292, 1710335792, "2024/3/13 13:16:32",  1,  -58,  1003,  0,  0,  0,  -11,  -27,  -37
2560492, 1710335793, "2024/3/13 13:16:33",  7,  -55,  1003,  0,  -1,  -1,  -11,  -25,  -36
2560692, 1710335793, "2024/3/13 13:16:33",  9,  -54,  1001,  0,  -1,  -1,  -9,  -25,  -37
2560892, 1710335793, "2024/3/13 13:16:33",  6,  -55,  1001,  0,  0,  -1,  -9,  -26,  -36
2561092, 1710335793, "2024/3/13 13:16:33",  9,  -57,  1008,  0,  0,  -1,  -11,  -27,  -38
2561292, 1710335793, "2024/3/13 13:16:33",  1,  -62,  1004,  0,  0,  -1,  -11,  -27,  -38
2561492, 1710335794, "2024/3/13 13:16:34",  7,  -56,  1001,  0,  0,  -1,  -12,  -26,  -37
2561692, 1710335794, "2024/3/13 13:16:34",  0,  -63,  1004,  0,  0,  0,  -11,  -26,  -38
2561892, 1710335794, "2024/3/13 13:16:34",  3,  -61,  1000,  0,  0,  -1,  -11,  -24,  -38
2562092, 1710335794, "2024/3/13 13:16:34",  8,  -56,  1006,  0,  0,  -1,  -12,  -26,  -36
2562292, 1710335794, "2024/3/13 13:16:34",  8,  -50,  1004,  0,  0,  -1,  -10,  -27,  -37
2562492, 1710335795, "2024/3/13 13:16:35",  5,  -63,  1003,  0,  0,  -1,  -10,  -27,  -36
2562692, 1710335795, "2024/3/13 13:16:35",  4,  -51,  1002,  0,  0,  -1,  -10,  -27,  -38
2562892, 1710335795, "2024/3/13 13:16:35",  3,  -64,  1004,  0,  0,  -1,  -10,  -25,  -38
2563092, 1710335795, "2024/3/13 13:16:35",  4,  -60,  1004,  0,  0,  0,  -11,  -27,  -37
2563292, 1710335795, "2024/3/13 13:16:35",  3,  -58,  1004,  0,  0,  -1,  -11,  -27,  -38
2563492, 1710335796, "2024/3/13 13:16:36",  4,  -63,  1003,  0,  0,  -1,  -12,  -26,  -36
2563692, 1710335796, "2024/3/13 13:16:36",  9,  -64,  1005,  0,  0,  0,  -10,  -27,  -36
2563892, 1710335796, "2024/3/13 13:16:36",  1,  -56,  1003,  0,  0,  -1,  -11,  -27,  -35
2564092, 1710335796, "2024/3/13 13:16:36",  7,  -55,  1002,  0,  0,  0,  -11,  -27,  -36
2564292, 1710335796, "2024/3/13 13:16:36",  1,  -62,  1000,  0,  0,  0,  -11,  -26,  -37
2564492, 1710335797, "2024/3/13 13:16:37",  11,  -58,  1006,  0,  0,  -1,  -10,  -28,  -37
2564692, 1710335797, "2024/3/13 13:16:37",  8,  -53,  1003,  0,  0,  0,  -11,  -26,  -36
2564892, 1710335797, "2024/3/13 13:16:37",  3,  -60,  1000,  0,  0,  -1,  -9,  -27,  -39
2565092, 1710335797, "2024/3/13 13:16:37",  8,  -55,  1006,  0,  0,  -1,  -10,  -26,  -37
2565292, 1710335797, "2024/3/13 13:16:37",  2,  -59,  1002,  0,  0,  -1,  -11,  -27,  -38
2565492, 1710335798, "2024/3/13 13:16:38",  6,  -56,  1002,  0,  0,  0,  -11,  -26,  -37
2565692, 1710335798, "2024/3/13 13:16:38",  8,  -58,  1004,  0,  0,  0,  -11,  -27,  -37
2565892, 1710335798, "2024/3/13 13:16:38",  8,  -57,  1006,  0,  0,  -1,  -11,  -27,  -37
2566092, 1710335798, "2024/3/13 13:16:38",  8,  -58,  1003,  0,  -1,  -1,  -10,  -26,  -37
2566292, 1710335798, "2024/3/13 13:16:38",  3,  -56,  1003,  0,  0,  -1,  -11,  -25,  -36
2566492, 1710335799, "2024/3/13 13:16:39",  3,  -61,  1003,  0,  0,  -1,  -11,  -27,  -37
2566692, 1710335799, "2024/3/13 13:16:39",  0,  -61,  1005,  0,  0,  -1,  -13,  -29,  -36
2566892, 1710335799, "2024/3/13 13:16:39",  0,  -58,  1004,  0,  0,  -1,  -11,  -27,  -36
2567092, 1710335799, "2024/3/13 13:16:39",  4,  -62,  1006,  0,  0,  -1,  -10,  -26,  -37
2567292, 1710335799, "2024/3/13 13:16:39",  -1,  -57,  1005,  0,  0,  0,  -12,  -27,  -37
2567492, 1710335800, "2024/3/13 13:16:40",  6,  -56,  1007,  0,  0,  -1,  -12,  -28,  -37
2567692, 1710335800, "2024/3/13 13:16:40",  8,  -55,  1005,  0,  0,  -1,  -11,  -27,  -35
2567892, 1710335800, "2024/3/13 13:16:40",  0,  -53,  1004,  0,  -1,  0,  -10,  -26,  -37
2568092, 1710335800, "2024/3/13 13:16:40",  3,  -55,  1000,  0,  0,  0,  -11,  -27,  -37
2568292, 1710335800, "2024/3/13 13:16:40",  5,  -58,  1001,  0,  0,  -1,  -11,  -26,  -36
2568492, 1710335801, "2024/3/13 13:16:41",  7,  -59,  1006,  0,  0,  -1,  -11,  -26,  -36
2568692, 1710335801, "2024/3/13 13:16:41",  8,  -63,  1001,  0,  0,  0,  -11,  -28,  -37
2568892, 1710335801, "2024/3/13 13:16:41",  9,  -61,  1004,  0,  0,  0,  -10,  -28,  -38
2569092, 1710335801, "2024/3/13 13:16:41",  4,  -58,  1005,  0,  0,  0,  -11,  -27,  -37
2569292, 1710335801, "2024/3/13 13:16:41",  3,  -56,  1005,  0,  0,  0,  -12,  -26,  -38
2569492, 1710335802, "2024/3/13 13:16:42",  6,  -54,  1001,  0,  0,  -1,  -11,  -26,  -37
2569692, 1710335802, "2024/3/13 13:16:42",  2,  -58,  1004,  0,  0,  -1,  -10,  -27,  -37
2569892, 1710335802, "2024/3/13 13:16:42",  4,  -55,  1003,  0,  0,  0,  -10,  -27,  -37
2570092, 1710335802, "2024/3/13 13:16:42",  5,  -61,  1006,  0,  0,  -1,  -11,  -25,  -36
2570292, 1710335802, "2024/3/13 13:16:42",  5,  -60,  1002,  0,  0,  0,  -11,  -27,  -36
2570492, 1710335803, "2024/3/13 13:16:43",  5,  -60,  1003,  0,  0,  0,  -11,  -26,  -37
2570692, 1710335803, "2024/3/13 13:16:43",  8,  -62,  1004,  0,  0,  0,  -10,  -27,  -38
2570892, 1710335803, "2024/3/13 13:16:43",  5,  -61,  1002,  0,  0,  -1,  -10,  -26,  -36
2571092, 1710335803, "2024/3/13 13:16:43",  6,  -57,  1007,  0,  0,  0,  -11,  -26,  -36
2571292, 1710335803, "2024/3/13 13:16:43",  7,  -51,  1003,  0,  -1,  -1,  -9,  -27,  -36
2571492, 1710335804, "2024/3/13 13:16:44",  6,  -57,  1005,  0,  0,  0,  -12,  -26,  -36
2571692, 1710335804, "2024/3/13 13:16:44",  7,  -58,  1002,  0,  0,  0,  -10,  -25,  -37
2571892, 1710335804, "2024/3/13 13:16:44",  5,  -57,  1001,  0,  0,  0,  -9,  -25,  -37
2572092, 1710335804, "2024/3/13 13:16:44",  6,  -54,  1001,  0,  0,  0,  -10,  -27,  -36
2572292, 1710335804, "2024/3/13 13:16:44",  7,  -64,  1002,  0,  0,  -1,  -11,  -28,  -36
2572492, 1710335805, "2024/3/13 13:16:45",  3,  -56,  1002,  0,  0,  -1,  -10,  -27,  -36
2572692, 1710335805, "2024/3/13 13:16:45",  5,  -58,  1004,  0,  0,  -1,  -10,  -26,  -37
2572892, 1710335805, "2024/3/13 13:16:45",  4,  -63,  1004,  0,  0,  -1,  -10,  -25,  -36
2573092, 1710335805, "2024/3/13 13:16:45",  5,  -55,  1001,  0,  0,  -1,  -9,  -26,  -37
2573292, 1710335805, "2024/3/13 13:16:45",  2,  -60,  1002,  0,  0,  0,  -9,  -27,  -36
2573492, 1710335806, "2024/3/13 13:16:46",  4,  -62,  1002,  0,  0,  0,  -10,  -26,  -36
2573692, 1710335806, "2024/3/13 13:16:46",  9,  -55,  1004,  0,  0,  0,  -10,  -27,  -36
2573892, 1710335806, "2024/3/13 13:16:46",  2,  -60,  1004,  0,  -1,  -1,  -10,  -27,  -37
2574092, 1710335806, "2024/3/13 13:16:46",  5,  -60,  1005,  0,  0,  -1,  -9,  -27,  -36
2574292, 1710335806, "2024/3/13 13:16:46",  2,  -58,  1004,  0,  0,  0,  -12,  -25,  -36
2574492, 1710335807, "2024/3/13 13:16:47",  2,  -58,  1000,  0,  0,  -1,  -10,  -26,  -37
2574692, 1710335807, "2024/3/13 13:16:47",  7,  -52,  1004,  0,  0,  0,  -11,  -27,  -37
2574892, 1710335807, "2024/3/13 13:16:47",  6,  -63,  1003,  0,  0,  -1,  -10,  -29,  -37
2575092, 1710335807, "2024/3/13 13:16:47",  2,  -59,  1006,  0,  0,  -1,  -11,  -27,  -37
2575292, 1710335807, "2024/3/13 13:16:47",  6,  -60,  1006,  0,  0,  -1,  -11,  -27,  -37
2575492, 1710335808, "2024/3/13 13:16:48",  8,  -64,  1004,  0,  0,  -1,  -11,  -26,  -37
2575692, 1710335808, "2024/3/13 13:16:48",  8,  -57,  1005,  0,  0,  -1,  -12,  -26,  -38
2575892, 1710335808, "2024/3/13 13:16:48",  3,  -64,  1003,  0,  0,  0,  -12,  -26,  -36
2576092, 1710335808, "2024/3/13 13:16:48",  3,  -63,  1003,  0,  0,  -1,  -11,  -26,  -38
2576292, 1710335808, "2024/3/13 13:16:48",  2,  -49,  1002,  0,  0,  -1,  -9,  -26,  -36
2576492, 1710335809, "2024/3/13 13:16:49",  5,  -54,  1000,  0,  0,  -1,  -10,  -25,  -35
2576692, 1710335809, "2024/3/13 13:16:49",  4,  -60,  1005,  0,  0,  0,  -11,  -26,  -37
2576892, 1710335809, "2024/3/13 13:16:49",  5,  -60,  1004,  0,  0,  0,  -11,  -26,  -37
2577092, 1710335809, "2024/3/13 13:16:49",  2,  -58,  1000,  0,  -1,  -1,  -11,  -26,  -38
2577292, 1710335809, "2024/3/13 13:16:49",  5,  -56,  1000,  0,  0,  -1,  -10,  -27,  -36
2577492, 1710335810, "2024/3/13 13:16:50",  2,  -64,  1000,  0,  0,  -1,  -9,  -27,  -37
2577692, 1710335810, "2024/3/13 13:16:50",  6,  -60,  1000,  0,  0,  0,  -10,  -25,  -36
2577892, 1710335810, "2024/3/13 13:16:50",  4,  -56,  1004,  0,  0,  -1,  -10,  -26,  -36
2578092, 1710335810, "2024/3/13 13:16:50",  2,  -55,  1005,  0,  0,  -1,  -12,  -26,  -37
2578292, 1710335810, "2024/3/13 13:16:50",  5,  -57,  1005,  0,  0,  0,  -11,  -26,  -36
2578492, 1710335811, "2024/3/13 13:16:51",  0,  -62,  1002,  0,  0,  0,  -9,  -27,  -37
2578692, 1710335811, "2024/3/13 13:16:51",  0,  -56,  1005,  0,  0,  0,  -11,  -26,  -37
2578892, 1710335811, "2024/3/13 13:16:51",  5,  -57,  1005,  0,  0,  -1,  -11,  -25,  -36
2579092, 1710335811, "2024/3/13 13:16:51",  4,  -58,  1005,  0,  0,  -1,  -11,  -27,  -36
2579292, 1710335811, "2024/3/13 13:16:51",  3,  -52,  1004,  0,  -1,  -1,  -11,  -26,  -36
2579492, 1710335812, "2024/3/13 13:16:52",  6,  -55,  1005,  0,  0,  0,  -10,  -24,  -37
2579692, 1710335812, "2024/3/13 13:16:52",  7,  -55,  1002,  0,  0,  -1,  -10,  -26,  -35
2579892, 1710335812, "2024/3/13 13:16:52",  3,  -59,  1003,  0,  0,  -1,  -10,  -26,  -37
2580092, 1710335812, "2024/3/13 13:16:52",  5,  -58,  1000,  0,  0,  -1,  -10,  -26,  -36
2580292, 1710335812, "2024/3/13 13:16:52",  4,  -56,  1006,  0,  0,  -1,  -11,  -26,  -38
2580492, 1710335813, "2024/3/13 13:16:53",  5,  -61,  1001,  0,  0,  0,  -12,  -26,  -37
2580692, 1710335813, "2024/3/13 13:16:53",  1,  -58,  1007,  0,  0,  -1,  -10,  -27,  -37
2580892, 1710335813, "2024/3/13 13:16:53",  4,  -55,  1000,  0,  0,  -1,  -10,  -27,  -37
2581092, 1710335813, "2024/3/13 13:16:53",  2,  -53,  1003,  0,  0,  0,  -12,  -26,  -36
2581292, 1710335813, "2024/3/13 13:16:53",  2,  -60,  1005,  0,  0,  0,  -10,  -27,  -37
2581492, 1710335814, "2024/3/13 13:16:54",  9,  -54,  1002,  0,  0,  0,  -11,  -27,  -36
2581692, 1710335814, "2024/3/13 13:16:54",  2,  -56,  1002,  0,  0,  -1,  -11,  -26,  -37
2581892, 1710335814, "2024/3/13 13:16:54",  6,  -60,  1003,  0,  0,  -1,  -11,  -27,  -36
2582092, 1710335814, "2024/3/13 13:16:54",  3,  -54,  1003,  0,  0,  -1,  -10,  -27,  -37
2582292, 1710335814, "2024/3/13 13:16:54",  5,  -62,  1005,  0,  0,  0,  -10,  -27,  -36
2582492, 1710335815, "2024/3/13 13:16:55",  5,  -59,  1000,  0,  0,  -1,  -11,  -26,  -37
2582692, 1710335815, "2024/3/13 13:16:55",  5,  -61,  1006,  0,  0,  -1,  -11,  -26,  -37
2582892, 1710335815, "2024/3/13 13:16:55",  5,  -62,  1002,  0,  -1,  -1,  -10,  -25,  -36
2583092, 1710335815, "2024/3/13 13:16:55",  13,  -58,  1002,  0,  0,  -1,  -12,  -27,  -36
2583292, 1710335815, "2024/3/13 13:16:55",  6,  -53,  1002,  0,  -1,  -1,  -11,  -26,  -36
2583492, 1710335816, "2024/3/13 13:16:56",  5,  -62,  1004,  0,  0,  -1,  -11,  -27,  -36
2583692, 1710335816, "2024/3/13 13:16:56",  9,  -59,  1000,  0,  0,  -1,  -9,  -26,  -36
2583892, 1710335816, "2024/3/13 13:16:56",  5,  -56,  1002,  0,  0,  -1,  -12,  -25,  -36
2584092, 1710335816, "2024/3/13 13:16:56",  7,  -63,  999,  0,  0,  0,  -9,  -27,  -36
2584292, 1710335816, "2024/3/13 13:16:56",  4,  -54,  1006,  0,  -1,  -1,  -11,  -27,  -37
2584492, 1710335817, "2024/3/13 13:16:57",  7,  -64,  1001,  0,  -1,  -1,  -12,  -28,  -35
2584692, 1710335817, "2024/3/13 13:16:57",  0,  -63,  1003,  0,  0,  -1,  -8,  -26,  -36
2584892, 1710335817, "2024/3/13 13:16:57",  12,  -61,  1000,  0,  0,  -1,  -11,  -27,  -36
2585092, 1710335817, "2024/3/13 13:16:57",  7,  -59,  1004,  0,  0,  -1,  -10,  -26,  -37
2585292, 1710335817, "2024/3/13 13:16:57",  6,  -58,  1002,  0,  -1,  0,  -11,  -26,  -36
2585492, 1710335818, "2024/3/13 13:16:58",  10,  -56,  1002,  0,  0,  0,  -11,  -27,  -37
2585692, 1710335818, "2024/3/13 13:16:58",  9,  -55,  1001,  0,  0,  0,  -11,  -26,  -37
2585892, 1710335818, "2024/3/13 13:16:58",  2,  -59,  1001,  0,  0,  -1,  -12,  -27,  -37
2586092, 1710335818, "2024/3/13 13:16:58",  3,  -61,  1004,  0,  0,  -1,  -10,  -27,  -35
