millis,stamp,datetime,accX,accY,accZ,gyroX,gyroY,gyroZ,compX,compY,compZ
3145317, 1710336378, "2024/3/13 13:26:18",  5,  -60,  1005,  0,  0,  0,  -12,  -27,  -36
3145517, 1710336378, "2024/3/13 13:26:18",  9,  -52,  1011,  0,  0,  0,  -11,  -27,  -36
3145717, 1710336378, "2024/3/13 13:26:18",  2,  -54,  1000,  0,  0,  0,  -11,  -28,  -34
3145917, 1710336378, "2024/3/13 13:26:18",  4,  -60,  998,  0,  0,  0,  -10,  -26,  -36
3146117, 1710336379, "2024/3/13 13:26:19",  8,  -66,  1002,  0,  0,  -1,  -11,  -26,  -36
3146317, 1710336379, "2024/3/13 13:26:19",  8,  -59,  1005,  0,  0,  0,  -11,  -27,  -37
3146517, 1710336379, "2024/3/13 13:26:19",  3,  -59,  1004,  0,  0,  -1,  -9,  -28,  -35
3146717, 1710336379, "2024/3/13 13:26:19",  -2,  -55,  1009,  1,  0,  -1,  -11,  -26,  -36
3146917, 1710336379, "2024/3/13 13:26:19",  7,  -48,  1001,  0,  -1,  -1,  -9,  -27,  -36
3147117, 1710336380, "2024/3/13 13:26:20",  5,  -55,  1005,  0,  0,  -1,  -10,  -26,  -35
3147317, 1710336380, "2024/3/13 13:26:20",  5,  -54,  1001,  0,  0,  0,  -11,  -27,  -37
3147517, 1710336380, "2024/3/13 13:26:20",  1,  -63,  1008,  0,  0,  0,  -9,  -25,  -36
3147717, 1710336380, "2024/3/13 13:26:20",  7,  -56,  1007,  0,  0,  0,  -10,  -27,  -36
3147917, 1710336380, "2024/3/13 13:26:20",  10,  -60,  1003,  0,  0,  -1,  -11,  -25,  -36
3148118, 1710336381, "2024/3/13 13:26:21",  5,  -62,  1000,  0,  0,  -1,  -10,  -26,  -35
3148318, 1710336381, "2024/3/13 13:26:21",  5,  -62,  1003,  0,  0,  -1,  -11,  -26,  -36
3148518, 1710336381, "2024/3/13 13:26:21",  6,  -60,  1000,  0,  0,  -1,  -10,  -26,  -37
3148718, 1710336381, "2024/3/13 13:26:21",  3,  -64,  1001,  0,  0,  -1,  -11,  -28,  -35
3148918, 1710336381, "2024/3/13 13:26:21",  6,  -63,  1005,  0,  0,  0,  -11,  -27,  -36
3149118, 1710336382, "2024/3/13 13:26:22",  10,  -61,  1006,  0,  0,  0,  -11,  -27,  -37
3149318, 1710336382, "2024/3/13 13:26:22",  1,  -60,  999,  0,  0,  -1,  -11,  -27,  -37
3149518, 1710336382, "2024/3/13 13:26:22",  6,  -56,  1003,  0,  0,  0,  -11,  -26,  -35
3149718, 1710336382, "2024/3/13 13:26:22",  5,  -61,  1003,  0,  0,  -1,  -10,  -27,  -38
3149918, 1710336382, "2024/3/13 13:26:22",  5,  -65,  1003,  0,  0,  -1,  -10,  -26,  -36
3150118, 1710336383, "2024/3/13 13:26:23",  -5,  -56,  1001,  0,  -1,  -1,  -11,  -24,  -37
3150318, 1710336383, "2024/3/13 13:26:23",  5,  -61,  1004,  0,  0,  -1,  -9,  -27,  -37
3150518, 1710336383, "2024/3/13 13:26:23",  6,  -57,  1004,  0,  -1,  -1,  -11,  -26,  -37
3150718, 1710336383, "2024/3/13 13:26:23",  2,  -56,  1004,  0,  0,  0,  -12,  -26,  -37
3150918, 1710336383, "2024/3/13 13:26:23",  9,  -61,  1007,  0,  0,  0,  -11,  -27,  -36
3151118, 1710336384, "2024/3/13 13:26:24",  8,  -64,  1001,  0,  0,  -1,  -9,  -27,  -37
3151318, 1710336384, "2024/3/13 13:26:24",  7,  -58,  1001,  0,  0,  -1,  -10,  -27,  -37
3151518, 1710336384, "2024/3/13 13:26:24",  1,  -58,  1001,  0,  0,  0,  -11,  -27,  -36
3151718, 1710336384, "2024/3/13 13:26:24",  3,  -56,  1006,  0,  0,  -1,  -11,  -27,  -36
3151918, 1710336384, "2024/3/13 13:26:24",  3,  -62,  1001,  0,  0,  0,  -10,  -27,  -36
3152118, 1710336385, "2024/3/13 13:26:25",  5,  -60,  1003,  0,  0,  0,  -13,  -27,  -37
3152318, 1710336385, "2024/3/13 13:26:25",  16,  -58,  1003,  0,  0,  -1,  -9,  -27,  -35
3152518, 1710336385, "2024/3/13 13:26:25",  6,  -56,  1002,  0,  0,  0,  -10,  -27,  -38
3152718, 1710336385, "2024/3/13 13:26:25",  5,  -61,  1003,  0,  0,  0,  -10,  -26,  -37
3152918, 1710336385, "2024/3/13 13:26:25",  7,  -60,  1004,  0,  0,  0,  -10,  -27,  -36
3153118, 1710336386, "2024/3/13 13:26:26",  7,  -58,  1004,  0,  0,  -1,  -10,  -27,  -37
3153318, 1710336386, "2024/3/13 13:26:26",  1,  -61,  1005,  0,  0,  -1,  -10,  -26,  -38
3153518, 1710336386, "2024/3/13 13:26:26",  3,  -59,  1001,  0,  0,  -1,  -10,  -27,  -36
3153718, 1710336386, "2024/3/13 13:26:26",  4,  -59,  1002,  0,  0,  0,  -11,  -27,  -36
3153918, 1710336386, "2024/3/13 13:26:26",  2,  -55,  1003,  0,  0,  0,  -10,  -28,  -36
3154118, 1710336387, "2024/3/13 13:26:27",  8,  -59,  1001,  0,  0,  -1,  -10,  -26,  -35
3154318, 1710336387, "2024/3/13 13:26:27",  7,  -56,  1002,  0,  0,  -1,  -9,  -26,  -36
3154518, 1710336387, "2024/3/13 13:26:27",  1,  -62,  1006,  0,  0,  0,  -11,  -26,  -35
3154718, 1710336387, "2024/3/13 13:26:27",  3,  -64,  1003,  0,  0,  -1,  -9,  -26,  -35
3154918, 1710336387, "2024/3/13 13:26:27",  4,  -61,  1003,  0,  0,  -1,  -12,  -25,  -36
3155118, 1710336388, "2024/3/13 13:26:28",  1,  -54,  1000,  0,  0,  -1,  -10,  -28,  -36
3155318, 1710336388, "2024/3/13 13:26:28",  2,  -55,  1002,  0,  0,  -1,  -11,  -27,  -37
3155518, 1710336388, "2024/3/13 13:26:28",  3,  -60,  1006,  0,  0,  -1,  -12,  -27,  -36
3155718, 1710336388, "2024/3/13 13:26:28",  6,  -53,  1000,  0,  -1,  -1,  -11,  -27,  -36
3155918, 1710336388, "2024/3/13 13:26:28",  6,  -62,  1005,  0,  0,  -1,  -11,  -27,  -36
3156118, 1710336389, "2024/3/13 13:26:29",  11,  -58,  999,  0,  0,  -1,  -12,  -27,  -35
3156318, 1710336389, "2024/3/13 13:26:29",  0,  -64,  1000,  0,  0,  -1,  -12,  -28,  -35
3156518, 1710336389, "2024/3/13 13:26:29",  8,  -63,  1005,  0,  0,  -1,  -11,  -27,  -36
3156718, 1710336389, "2024/3/13 13:26:29",  -3,  -59,  1005,  0,  0,  0,  -11,  -28,  -37
3156918, 1710336389, "2024/3/13 13:26:29",  3,  -55,  1004,  0,  0,  0,  -11,  -26,  -36
3157118, 1710336390, "2024/3/13 13:26:30",  15,  -56,  1012,  0,  0,  -1,  -10,  -27,  -35
3157318, 1710336390, "2024/3/13 13:26:30",  4,  -58,  1002,  0,  0,  -1,  -9,  -26,  -36
3157518, 1710336390, "2024/3/13 13:26:30",  -1,  -57,  1005,  1,  -1,  -1,  -10,  -26,  -38
3157718, 1710336390, "2024/3/13 13:26:30",  3,  -62,  1009,  0,  0,  -1,  -10,  -25,  -36
3157918, 1710336390, "2024/3/13 13:26:30",  1,  -61,  1003,  0,  0,  0,  -11,  -26,  -36
3158118, 1710336391, "2024/3/13 13:26:31",  0,  -57,  1009,  0,  0,  0,  -11,  -25,  -37
3158318, 1710336391, "2024/3/13 13:26:31",  6,  -56,  1002,  0,  -1,  -1,  -11,  -25,  -35
3158518, 1710336391, "2024/3/13 13:26:31",  10,  -63,  1007,  0,  0,  0,  -10,  -27,  -37
3158718, 1710336391, "2024/3/13 13:26:31",  5,  -49,  1005,  0,  0,  -1,  -11,  -28,  -37
3158918, 1710336391, "2024/3/13 13:26:31",  5,  -55,  1003,  0,  0,  -1,  -10,  -25,  -37
3159118, 1710336392, "2024/3/13 13:26:32",  5,  -55,  1005,  0,  0,  -1,  -10,  -27,  -37
3159318, 1710336392, "2024/3/13 13:26:32",  0,  -63,  994,  0,  -1,  -1,  -11,  -26,  -36
3159518, 1710336392, "2024/3/13 13:26:32",  3,  -63,  1002,  0,  0,  0,  -9,  -26,  -36
3159718, 1710336392, "2024/3/13 13:26:32",  5,  -57,  1003,  0,  0,  0,  -10,  -27,  -35
3159918, 1710336392, "2024/3/13 13:26:32",  3,  -58,  1003,  0,  0,  0,  -11,  -26,  -36
3160118, 1710336393, "2024/3/13 13:26:33",  1,  -60,  1003,  0,  -1,  -1,  -10,  -28,  -36
3160318, 1710336393, "2024/3/13 13:26:33",  7,  -58,  998,  0,  0,  -1,  -11,  -27,  -36
3160518, 1710336393, "2024/3/13 13:26:33",  14,  -60,  1005,  0,  0,  0,  -11,  -26,  -36
3160718, 1710336393, "2024/3/13 13:26:33",  8,  -55,  1001,  0,  0,  0,  -12,  -27,  -35
3160918, 1710336393, "2024/3/13 13:26:33",  6,  -56,  1002,  0,  0,  0,  -12,  -26,  -36
3161118, 1710336394, "2024/3/13 13:26:34",  11,  -56,  1006,  0,  0,  -1,  -11,  -25,  -37
3161318, 1710336394, "2024/3/13 13:26:34",  0,  -56,  1004,  0,  0,  0,  -11,  -25,  -35
3161518, 1710336394, "2024/3/13 13:26:34",  6,  -58,  1002,  0,  0,  -1,  -11,  -27,  -35
3161718, 1710336394, "2024/3/13 13:26:34",  3,  -57,  1001,  0,  -1,  -1,  -9,  -27,  -35
3161918, 1710336394, "2024/3/13 13:26:34",  2,  -58,  1006,  0,  -1,  -1,  -11,  -26,  -36
3162118, 1710336395, "2024/3/13 13:26:35",  7,  -60,  1002,  0,  0,  0,  -11,  -25,  -37
3162318, 1710336395, "2024/3/13 13:26:35",  3,  -61,  1005,  0,  0,  -1,  -9,  -27,  -35
3162518, 1710336395, "2024/3/13 13:26:35",  9,  -58,  1000,  0,  -1,  0,  -11,  -25,  -36
3162718, 1710336395, "2024/3/13 13:26:35",  6,  -60,  1004,  0,  0,  -1,  -12,  -27,  -36
3162918, 1710336395, "2024/3/13 13:26:35",  2,  -52,  1004,  0,  -1,  -1,  -9,  -25,  -36
3163118, 1710336396, "2024/3/13 13:26:36",  8,  -58,  1003,  0,  0,  0,  -10,  -27,  -37
3163318, 1710336396, "2024/3/13 13:26:36",  4,  -56,  1000,  0,  0,  -1,  -12,  -26,  -36
3163518, 1710336396, "2024/3/13 13:26:36",  7,  -61,  1001,  0,  0,  0,  -11,  -26,  -36
3163718, 1710336396, "2024/3/13 13:26:36",  1,  -64,  1001,  0,  0,  0,  -12,  -25,  -35
3163918, 1710336396, "2024/3/13 13:26:36",  5,  -63,  1006,  0,  0,  -1,  -11,  -27,  -36
3164118, 1710336397, "2024/3/13 13:26:37",  1,  -59,  1004,  0,  0,  0,  -11,  -26,  -37
3164318, 1710336397, "2024/3/13 13:26:37",  6,  -58,  1004,  0,  0,  0,  -11,  -25,  -36
3164518, 1710336397, "2024/3/13 13:26:37",  5,  -59,  1004,  0,  0,  -1,  -10,  -25,  -36
3164718, 1710336397, "2024/3/13 13:26:37",  6,  -58,  1005,  0,  0,  0,  -11,  -26,  -38
3164918, 1710336397, "2024/3/13 13:26:37",  5,  -61,  1003,  0,  0,  0,  -10,  -27,  -36
3165118, 1710336398, "2024/3/13 13:26:38",  4,  -55,  1001,  0,  0,  -1,  -11,  -27,  -38
3165318, 1710336398, "2024/3/13 13:26:38",  3,  -59,  1006,  0,  0,  -1,  -11,  -25,  -38
3165518, 1710336398, "2024/3/13 13:26:38",  -3,  -48,  1000,  0,  -1,  -1,  -10,  -28,  -35
3165718, 1710336398, "2024/3/13 13:26:38",  10,  -63,  1002,  0,  0,  -1,  -11,  -27,  -36
3165918, 1710336398, "2024/3/13 13:26:38",  1,  -60,  1004,  0,  0,  0,  -11,  -27,  -36
3166118, 1710336399, "2024/3/13 13:26:39",  4,  -57,  1006,  0,  0,  0,  -11,  -26,  -37
3166318, 1710336399, "2024/3/13 13:26:39",  5,  -58,  1009,  0,  0,  -1,  -10,  -26,  -37
3166518, 1710336399, "2024/3/13 13:26:39",  1,  -57,  1000,  0,  -1,  -1,  -12,  -27,  -38
3166718, 1710336399, "2024/3/13 13:26:39",  0,  -58,  1000,  0,  0,  0,  -11,  -27,  -38
3166918, 1710336399, "2024/3/13 13:26:39",  7,  -57,  1010,  0,  0,  -1,  -11,  -26,  -36
3167118, 1710336400, "2024/3/13 13:26:40",  8,  -59,  1004,  0,  0,  -1,  -10,  -26,  -36
3167318, 1710336400, "2024/3/13 13:26:40",  4,  -61,  1004,  0,  0,  0,  -11,  -27,  -36
3167518, 1710336400, "2024/3/13 13:26:40",  2,  -60,  1000,  0,  0,  0,  -11,  -26,  -36
3167718, 1710336400, "2024/3/13 13:26:40",  -2,  -59,  1005,  0,  0,  0,  -10,  -26,  -37
3167918, 1710336400, "2024/3/13 13:26:40",  3,  -57,  1002,  0,  0,  -1,  -12,  -25,  -35
3168118, 1710336401, "2024/3/13 13:26:41",  8,  -63,  999,  0,  0,  0,  -10,  -27,  -37
3168318, 1710336401, "2024/3/13 13:26:41",  4,  -61,  1000,  0,  0,  -1,  -10,  -27,  -36
3168518, 1710336401, "2024/3/13 13:26:41",  1,  -56,  1005,  0,  0,  -1,  -10,  -25,  -36
3168718, 1710336401, "2024/3/13 13:26:41",  -3,  -62,  1002,  0,  -1,  -1,  -10,  -26,  -36
3168918, 1710336401, "2024/3/13 13:26:41",  7,  -60,  1005,  0,  0,  -1,  -8,  -27,  -35
3169118, 1710336402, "2024/3/13 13:26:42",  5,  -57,  1007,  0,  0,  0,  -10,  -25,  -36
3169318, 1710336402, "2024/3/13 13:26:42",  6,  -60,  1004,  0,  0,  0,  -10,  -28,  -37
3169518, 1710336402, "2024/3/13 13:26:42",  3,  -54,  1003,  0,  0,  0,  -11,  -27,  -37
3169718, 1710336402, "2024/3/13 13:26:42",  5,  -60,  1005,  0,  0,  -1,  -9,  -25,  -36
3169918, 1710336402, "2024/3/13 13:26:42",  3,  -61,  1000,  0,  0,  -1,  -11,  -26,  -37
3170118, 1710336403, "2024/3/13 13:26:43",  5,  -58,  1007,  0,  0,  0,  -9,  -25,  -36
3170318, 1710336403, "2024/3/13 13:26:43",  7,  -59,  1006,  0,  0,  -1,  -9,  -27,  -37
3170518, 1710336403, "2024/3/13 13:26:43",  6,  -56,  1007,  0,  -1,  -1,  -11,  -27,  -37
3170718, 1710336403, "2024/3/13 13:26:43",  2,  -55,  1005,  0,  0,  -1,  -10,  -27,  -36
3170918, 1710336403, "2024/3/13 13:26:43",  5,  -60,  1004,  0,  0,  -1,  -9,  -27,  -38
3171118, 1710336404, "2024/3/13 13:26:44",  5,  -59,  1000,  0,  0,  -1,  -10,  -26,  -37
3171318, 1710336404, "2024/3/13 13:26:44",  9,  -60,  1004,  0,  0,  0,  -11,  -27,  -37
3171518, 1710336404, "2024/3/13 13:26:44",  2,  -58,  1002,  0,  0,  0,  -11,  -27,  -37
3171718, 1710336404, "2024/3/13 13:26:44",  6,  -59,  1007,  0,  0,  -1,  -10,  -28,  -37
3171918, 1710336404, "2024/3/13 13:26:44",  2,  -55,  1006,  0,  0,  -1,  -10,  -26,  -36
3172118, 1710336405, "2024/3/13 13:26:45",  6,  -58,  1004,  0,  0,  -1,  -11,  -25,  -36
3172318, 1710336405, "2024/3/13 13:26:45",  1,  -61,  1005,  0,  0,  -1,  -11,  -28,  -36
3172518, 1710336405, "2024/3/13 13:26:45",  4,  -61,  999,  0,  -1,  -1,  -11,  -26,  -36
3172718, 1710336405, "2024/3/13 13:26:45",  6,  -59,  998,  0,  0,  -1,  -10,  -26,  -36
3172918, 1710336405, "2024/3/13 13:26:45",  0,  -60,  1004,  0,  0,  -1,  -11,  -26,  -36
3173118, 1710336406, "2024/3/13 13:26:46",  -4,  -57,  1000,  0,  -1,  0,  -11,  -27,  -37
3173318, 1710336406, "2024/3/13 13:26:46",  8,  -64,  988,  0,  0,  -1,  -11,  -26,  -37
3173518, 1710336406, "2024/3/13 13:26:46",  11,  -62,  1001,  0,  0,  -1,  -11,  -26,  -36
3173718, 1710336406, "2024/3/13 13:26:46",  0,  -64,  1004,  1,  0,  0,  -10,  -26,  -37
3173918, 1710336406, "2024/3/13 13:26:46",  3,  -59,  1004,  0,  0,  0,  -12,  -28,  -37
3174118, 1710336407, "2024/3/13 13:26:47",  6,  -58,  1001,  0,  -1,  -1,  -8,  -26,  -37
3174318, 1710336407, "2024/3/13 13:26:47",  3,  -61,  1010,  0,  0,  0,  -10,  -27,  -37
3174518, 1710336407, "2024/3/13 13:26:47",  -2,  -58,  1007,  0,  0,  -1,  -10,  -27,  -35
3174718, 1710336407, "2024/3/13 13:26:47",  5,  -64,  1003,  0,  0,  -1,  -10,  -26,  -37
3174918, 1710336407, "2024/3/13 13:26:47",  5,  -59,  1006,  0,  0,  -1,  -11,  -28,  -36
3175118, 1710336408, "2024/3/13 13:26:48",  4,  -56,  1003,  0,  -1,  -1,  -11,  -27,  -36
3175318, 1710336408, "2024/3/13 13:26:48",  6,  -63,  1002,  0,  0,  0,  -11,  -25,  -37
3175518, 1710336408, "2024/3/13 13:26:48",  0,  -46,  1024,  0,  0,  0,  -10,  -27,  -36
3175718, 1710336408, "2024/3/13 13:26:48",  1,  -55,  1004,  0,  0,  0,  -12,  -27,  -36
3175918, 1710336408, "2024/3/13 13:26:48",  3,  -58,  1006,  0,  0,  -1,  -10,  -27,  -35
3176118, 1710336409, "2024/3/13 13:26:49",  8,  -58,  1007,  0,  -1,  -1,  -12,  -27,  -36
3176318, 1710336409, "2024/3/13 13:26:49",  0,  -60,  1001,  0,  -1,  -1,  -10,  -27,  -36
3176518, 1710336409, "2024/3/13 13:26:49",  5,  -62,  1003,  0,  0,  -1,  -11,  -27,  -36
3176718, 1710336409, "2024/3/13 13:26:49",  2,  -64,  1005,  0,  0,  -1,  -10,  -27,  -36
3176918, 1710336409, "2024/3/13 13:26:49",  3,  -61,  1005,  0,  0,  0,  -11,  -25,  -36
3177118, 1710336410, "2024/3/13 13:26:50",  3,  -64,  999,  0,  0,  0,  -11,  -25,  -36
3177318, 1710336410, "2024/3/13 13:26:50",  4,  -57,  1003,  0,  0,  -1,  -11,  -27,  -36
3177518, 1710336410, "2024/3/13 13:26:50",  11,  -57,  1004,  0,  0,  -1,  -9,  -26,  -36
3177718, 1710336410, "2024/3/13 13:26:50",  8,  -59,  1004,  0,  0,  -1,  -11,  -27,  -37
3177918, 1710336410, "2024/3/13 13:26:50",  7,  -54,  1004,  0,  0,  0,  -11,  -26,  -38
3178118, 1710336411, "2024/3/13 13:26:51",  4,  -55,  1003,  0,  0,  0,  -11,  -27,  -37
3178318, 1710336411, "2024/3/13 13:26:51",  3,  -62,  1006,  0,  0,  -1,  -11,  -26,  -37
3178518, 1710336411, "2024/3/13 13:26:51",  9,  -61,  1004,  0,  0,  -1,  -10,  -27,  -37
3178718, 1710336411, "2024/3/13 13:26:51",  9,  -61,  1002,  0,  0,  0,  -12,  -25,  -37
3178918, 1710336411, "2024/3/13 13:26:51",  8,  -59,  1003,  0,  0,  -1,  -9,  -26,  -37
3179118, 1710336412, "2024/3/13 13:26:52",  4,  -60,  1004,  0,  0,  -1,  -11,  -26,  -37
3179318, 1710336412, "2024/3/13 13:26:52",  3,  -57,  1000,  0,  0,  0,  -9,  -27,  -34
3179518, 1710336412, "2024/3/13 13:26:52",  6,  -61,  1005,  0,  0,  -1,  -11,  -27,  -37
3179718, 1710336412, "2024/3/13 13:26:52",  6,  -62,  1001,  0,  0,  0,  -11,  -26,  -36
3179918, 1710336412, "2024/3/13 13:26:52",  3,  -56,  1001,  0,  0,  -1,  -10,  -27,  -38
3180118, 1710336413, "2024/3/13 13:26:53",  6,  -60,  1004,  0,  0,  0,  -11,  -27,  -36
3180318, 1710336413, "2024/3/13 13:26:53",  7,  -55,  1004,  0,  0,  0,  -11,  -27,  -36
3180518, 1710336413, "2024/3/13 13:26:53",  5,  -59,  1002,  0,  0,  -1,  -10,  -26,  -35
3180718, 1710336413, "2024/3/13 13:26:53",  2,  -56,  1000,  0,  0,  -1,  -9,  -25,  -36
3180918, 1710336413, "2024/3/13 13:26:53",  13,  -59,  1004,  0,  -1,  -1,  -11,  -25,  -36
3181118, 1710336414, "2024/3/13 13:26:54",  5,  -59,  1002,  0,  -1,  -1,  -9,  -26,  -36
3181318, 1710336414, "2024/3/13 13:26:54",  22,  -61,  1020,  -1,  -1,  -1,  -11,  -26,  -36
3181518, 1710336414, "2024/3/13 13:26:54",  18,  -57,  1003,  0,  -1,  -1,  -11,  -26,  -35
3181718, 1710336414, "2024/3/13 13:26:54",  15,  -56,  999,  0,  0,  -1,  -11,  -26,  -37
3181918, 1710336414, "2024/3/13 13:26:54",  7,  -54,  1003,  0,  0,  0,  -11,  -26,  -36
3182118, 1710336415, "2024/3/13 13:26:55",  2,  -57,  1000,  0,  0,  -1,  -11,  -28,  -37
3182318, 1710336415, "2024/3/13 13:26:55",  8,  -60,  1004,  0,  0,  -1,  -10,  -27,  -37
3182518, 1710336415, "2024/3/13 13:26:55",  5,  -61,  1005,  0,  0,  0,  -12,  -27,  -36
3182718, 1710336415, "2024/3/13 13:26:55",  8,  -57,  1000,  0,  0,  -1,  -10,  -26,  -35
3182918, 1710336415, "2024/3/13 13:26:55",  5,  -61,  1005,  0,  0,  0,  -11,  -26,  -38
3183118, 1710336416, "2024/3/13 13:26:56",  0,  -55,  995,  0,  0,  -1,  -9,  -26,  -37
3183318, 1710336416, "2024/3/13 13:26:56",  8,  -55,  1005,  0,  0,  -1,  -11,  -26,  -37
3183518, 1710336416, "2024/3/13 13:26:56",  6,  -53,  1003,  0,  0,  -1,  -10,  -27,  -36
3183718, 1710336416, "2024/3/13 13:26:56",  4,  -55,  1005,  0,  0,  0,  -9,  -26,  -37
3183918, 1710336416, "2024/3/13 13:26:56",  2,  -66,  1006,  0,  0,  0,  -11,  -28,  -37
3184118, 1710336417, "2024/3/13 13:26:57",  0,  -61,  1003,  0,  0,  -1,  -10,  -26,  -36
3184318, 1710336417, "2024/3/13 13:26:57",  9,  -61,  1004,  0,  0,  -1,  -9,  -26,  -36
3184518, 1710336417, "2024/3/13 13:26:57",  10,  -55,  1006,  0,  0,  -1,  -12,  -27,  -36
3184718, 1710336417, "2024/3/13 13:26:57",  1,  -47,  1010,  0,  0,  0,  -9,  -26,  -37
3184918, 1710336417, "2024/3/13 13:26:57",  0,  -64,  998,  0,  0,  0,  -11,  -27,  -36
3185118, 1710336418, "2024/3/13 13:26:58",  -2,  -64,  1001,  0,  0,  0,  -11,  -28,  -36
3185318, 1710336418, "2024/3/13 13:26:58",  9,  -57,  997,  0,  0,  0,  -10,  -26,  -36
3185518, 1710336418, "2024/3/13 13:26:58",  11,  -55,  1004,  0,  0,  0,  -11,  -27,  -36
3185718, 1710336418, "2024/3/13 13:26:58",  5,  -54,  1003,  0,  0,  -1,  -12,  -27,  -36
3185918, 1710336418, "2024/3/13 13:26:58",  10,  -61,  1004,  0,  0,  0,  -11,  -28,  -36
3186118, 1710336419, "2024/3/13 13:26:59",  14,  -57,  1004,  0,  0,  0,  -9,  -27,  -37
3186318, 1710336419, "2024/3/13 13:26:59",  8,  -58,  1007,  0,  -1,  -1,  -9,  -26,  -36
3186518, 1710336419, "2024/3/13 13:26:59",  4,  -58,  1004,  0,  0,  -1,  -10,  -27,  -37
3186718, 1710336419, "2024/3/13 13:26:59",  8,  -56,  1001,  0,  -1,  -1,  -11,  -24,  -37
3186918, 1710336419, "2024/3/13 13:26:59",  8,  -51,  1002,  0,  0,  -1,  -11,  -27,  -36
3187118, 1710336420, "2024/3/13 13:27:0",  9,  -55,  1007,  0,  0,  0,  -10,  -27,  -37
3187318, 1710336420, "2024/3/13 13:27:0",  11,  -61,  1000,  0,  0,  -1,  -11,  -26,  -37
3187518, 1710336420, "2024/3/13 13:27:0",  7,  -52,  1004,  0,  0,  -1,  -10,  -27,  -35
3187718, 1710336420, "2024/3/13 13:27:0",  4,  -55,  1000,  0,  0,  0,  -11,  -26,  -36
3187918, 1710336420, "2024/3/13 13:27:0",  2,  -63,  1002,  0,  0,  0,  -11,  -26,  -36
3188118, 1710336421, "2024/3/13 13:27:1",  1,  -57,  1005,  0,  0,  -1,  -12,  -26,  -36
3188318, 1710336421, "2024/3/13 13:27:1",  2,  -59,  1002,  0,  0,  -1,  -10,  -26,  -38
3188518, 1710336421, "2024/3/13 13:27:1",  4,  -58,  1003,  0,  0,  -1,  -10,  -27,  -37
3188718, 1710336421, "2024/3/13 13:27:1",  5,  -56,  1001,  0,  0,  0,  -12,  -27,  -37
3188918, 1710336421, "2024/3/13 13:27:1",  1,  -56,  1006,  0,  0,  -1,  -11,  -27,  -35
3189118, 1710336422, "2024/3/13 13:27:2",  3,  -60,  1003,  0,  -1,  -1,  -11,  -26,  -35
3189318, 1710336422, "2024/3/13 13:27:2",  -5,  -63,  985,  0,  -1,  0,  -11,  -27,  -37
3189518, 1710336422, "2024/3/13 13:27:2",  2,  -56,  1002,  0,  0,  -1,  -11,  -26,  -36
3189718, 1710336422, "2024/3/13 13:27:2",  13,  -59,  1004,  0,  0,  0,  -10,  -25,  -37
3189918, 1710336422, "2024/3/13 13:27:2",  7,  -61,  1005,  0,  0,  0,  -9,  -27,  -36
3190118, 1710336423, "2024/3/13 13:27:3",  5,  -62,  1004,  0,  0,  -1,  -11,  -27,  -36
3190318, 1710336423, "2024/3/13 13:27:3",  9,  -57,  1005,  0,  0,  0,  -11,  -26,  -36
3190518, 1710336423, "2024/3/13 13:27:3",  5,  -57,  1004,  1,  0,  -1,  -10,  -25,  -37
3190718, 1710336423, "2024/3/13 13:27:3",  4,  -64,  1003,  0,  0,  -1,  -9,  -27,  -36
3190918, 1710336423, "2024/3/13 13:27:3",  4,  -59,  1001,  0,  0,  -1,  -12,  -27,  -36
3191118, 1710336424, "2024/3/13 13:27:4",  6,  -61,  1005,  0,  0,  -1,  -12,  -28,  -36
3191318, 1710336424, "2024/3/13 13:27:4",  5,  -64,  1005,  0,  0,  -1,  -11,  -26,  -36
3191518, 1710336424, "2024/3/13 13:27:4",  5,  -52,  1001,  0,  0,  0,  -10,  -27,  -36
3191718, 1710336424, "2024/3/13 13:27:4",  4,  -54,  1003,  0,  -1,  -1,  -11,  -27,  -36
3191918, 1710336424, "2024/3/13 13:27:4",  7,  -53,  1004,  0,  0,  0,  -9,  -27,  -37
3192118, 1710336425, "2024/3/13 13:27:5",  9,  -60,  1001,  0,  0,  0,  -10,  -26,  -36
3192318, 1710336425, "2024/3/13 13:27:5",  5,  -59,  1004,  0,  0,  -1,  -11,  -27,  -36
3192518, 1710336425, "2024/3/13 13:27:5",  2,  -63,  1006,  0,  0,  0,  -10,  -26,  -36
3192718, 1710336425, "2024/3/13 13:27:5",  5,  -65,  1002,  0,  0,  0,  -10,  -27,  -37
3192918, 1710336425, "2024/3/13 13:27:5",  5,  -58,  1005,  0,  0,  -1,  -10,  -28,  -37
3193118, 1710336426, "2024/3/13 13:27:6",  8,  -57,  1003,  0,  0,  -1,  -11,  -25,  -37
3193318, 1710336426, "2024/3/13 13:27:6",  8,  -53,  1009,  0,  0,  -1,  -11,  -26,  -35
3193518, 1710336426, "2024/3/13 13:27:6",  10,  -64,  1003,  0,  0,  -1,  -9,  -27,  -37
3193718, 1710336426, "2024/3/13 13:27:6",  14,  -61,  1004,  0,  0,  -1,  -10,  -25,  -37
3193918, 1710336426, "2024/3/13 13:27:6",  5,  -58,  1002,  0,  -1,  -1,  -11,  -27,  -36
3194118, 1710336427, "2024/3/13 13:27:7",  4,  -53,  1005,  0,  0,  0,  -12,  -24,  -37
3194318, 1710336427, "2024/3/13 13:27:7",  2,  -57,  1006,  0,  0,  -1,  -10,  -27,  -36
3194518, 1710336427, "2024/3/13 13:27:7",  5,  -61,  1003,  0,  0,  -1,  -9,  -25,  -37
3194718, 1710336427, "2024/3/13 13:27:7",  4,  -65,  1006,  0,  -1,  -1,  -10,  -27,  -36
3194918, 1710336427, "2024/3/13 13:27:7",  2,  -60,  1001,  0,  0,  -1,  -10,  -26,  -36
3195118, 1710336428, "2024/3/13 13:27:8",  1,  -60,  1001,  0,  0,  -1,  -11,  -25,  -37
3195318, 1710336428, "2024/3/13 13:27:8",  5,  -58,  1003,  0,  -1,  0,  -10,  -25,  -36
3195518, 1710336428, "2024/3/13 13:27:8",  4,  -61,  1003,  0,  0,  -1,  -10,  -27,  -35
3195718, 1710336428, "2024/3/13 13:27:8",  9,  -58,  1001,  0,  -1,  -1,  -11,  -26,  -38
3195918, 1710336428, "2024/3/13 13:27:8",  4,  -58,  1000,  0,  -1,  0,  -10,  -27,  -38
3196118, 1710336429, "2024/3/13 13:27:9",  7,  -60,  1005,  0,  0,  0,  -10,  -27,  -38
3196318, 1710336429, "2024/3/13 13:27:9",  13,  -60,  998,  0,  0,  0,  -9,  -27,  -36
3196518, 1710336429, "2024/3/13 13:27:9",  3,  -62,  1004,  0,  0,  -1,  -12,  -26,  -37
3196718, 1710336429, "2024/3/13 13:27:9",  8,  -58,  1002,  0,  0,  0,  -9,  -26,  -35
3196918, 1710336429, "2024/3/13 13:27:9",  6,  -64,  1002,  0,  0,  -1,  -11,  -26,  -36
3197118, 1710336430, "2024/3/13 13:27:10",  7,  -65,  995,  0,  -1,  0,  -12,  -27,  -38
3197318, 1710336430, "2024/3/13 13:27:10",  16,  -61,  1004,  0,  0,  0,  -10,  -25,  -36
3197518, 1710336430, "2024/3/13 13:27:10",  12,  -54,  1005,  0,  0,  -1,  -10,  -25,  -36
3197718, 1710336430, "2024/3/13 13:27:10",  13,  -55,  1000,  0,  0,  -1,  -11,  -25,  -37
3197918, 1710336430, "2024/3/13 13:27:10",  0,  -55,  966,  0,  0,  -1,  -10,  -27,  -36
3198118, 1710336431, "2024/3/13 13:27:11",  14,  -59,  1005,  0,  0,  -1,  -11,  -26,  -36
3198318, 1710336431, "2024/3/13 13:27:11",  8,  -62,  1001,  0,  0,  0,  -12,  -27,  -36
3198518, 1710336431, "2024/3/13 13:27:11",  6,  -68,  1004,  1,  -1,  -1,  -11,  -27,  -37
3198718, 1710336431, "2024/3/13 13:27:11",  7,  -60,  1005,  0,  -1,  -1,  -13,  -25,  -36
3198918, 1710336431, "2024/3/13 13:27:11",  7,  -53,  1003,  0,  0,  -1,  -10,  -26,  -36
3199118, 1710336432, "2024/3/13 13:27:12",  6,  -60,  1007,  0,  0,  0,  -12,  -25,  -36
3199318, 1710336432, "2024/3/13 13:27:12",  3,  -58,  1003,  0,  0,  0,  -11,  -26,  -36
3199518, 1710336432, "2024/3/13 13:27:12",  0,  -50,  1005,  0,  -1,  0,  -10,  -26,  -37
3199718, 1710336432, "2024/3/13 13:27:12",  0,  -62,  1005,  0,  -1,  0,  -10,  -26,  -37
3199918, 1710336432, "2024/3/13 13:27:12",  -2,  -60,  1005,  0,  -1,  -1,  -10,  -27,  -35
3200118, 1710336433, "2024/3/13 13:27:13",  1,  -49,  1009,  0,  0,  -1,  -11,  -26,  -37
3200318, 1710336433, "2024/3/13 13:27:13",  5,  -54,  1004,  0,  0,  0,  -11,  -25,  -36
3200518, 1710336433, "2024/3/13 13:27:13",  -3,  -60,  1004,  0,  -1,  -1,  -10,  -26,  -36
3200718, 1710336433, "2024/3/13 13:27:13",  0,  -56,  997,  0,  0,  -1,  -9,  -26,  -36
3200918, 1710336433, "2024/3/13 13:27:13",  1,  -61,  1004,  0,  0,  0,  -11,  -27,  -37
3201118, 1710336434, "2024/3/13 13:27:14",  8,  -54,  1009,  0,  0,  -1,  -11,  -26,  -36
3201318, 1710336434, "2024/3/13 13:27:14",  -7,  -60,  985,  0,  -1,  0,  -11,  -26,  -35
3201518, 1710336434, "2024/3/13 13:27:14",  1,  -58,  1004,  0,  0,  0,  -11,  -26,  -36
3201718, 1710336434, "2024/3/13 13:27:14",  3,  -55,  1003,  0,  0,  -1,  -11,  -27,  -36
3201918, 1710336434, "2024/3/13 13:27:14",  4,  -60,  1004,  0,  0,  0,  -11,  -28,  -37
3202118, 1710336435, "2024/3/13 13:27:15",  7,  -56,  1002,  0,  0,  0,  -9,  -25,  -37
3202318, 1710336435, "2024/3/13 13:27:15",  5,  -60,  1002,  0,  0,  0,  -11,  -27,  -36
3202518, 1710336435, "2024/3/13 13:27:15",  3,  -58,  1003,  0,  0,  -1,  -10,  -26,  -35
3202718, 1710336435, "2024/3/13 13:27:15",  3,  -59,  1003,  0,  0,  -1,  -10,  -26,  -37
3202918, 1710336435, "2024/3/13 13:27:15",  7,  -56,  1004,  0,  0,  -1,  -10,  -26,  -37
3203118, 1710336436, "2024/3/13 13:27:16",  7,  -57,  999,  0,  0,  0,  -10,  -27,  -37
3203318, 1710336436, "2024/3/13 13:27:16",  6,  -57,  1006,  0,  0,  -1,  -11,  -27,  -36
3203518, 1710336436, "2024/3/13 13:27:16",  -1,  -58,  1005,  0,  0,  -1,  -11,  -26,  -37
3203718, 1710336436, "2024/3/13 13:27:16",  1,  -65,  1007,  0,  0,  -1,  -10,  -28,  -36
3203918, 1710336436, "2024/3/13 13:27:16",  4,  -60,  1002,  0,  0,  -1,  -11,  -27,  -36
3204118, 1710336437, "2024/3/13 13:27:17",  0,  -60,  1006,  0,  0,  -1,  -12,  -27,  -36
3204318, 1710336437, "2024/3/13 13:27:17",  2,  -64,  1000,  0,  0,  -1,  -10,  -25,  -36
3204518, 1710336437, "2024/3/13 13:27:17",  5,  -60,  1005,  0,  -1,  -1,  -10,  -26,  -37
3204718, 1710336437, "2024/3/13 13:27:17",  5,  -68,  1002,  0,  0,  0,  -10,  -26,  -37
3204918, 1710336437, "2024/3/13 13:27:17",  7,  -60,  1003,  0,  0,  0,  -12,  -28,  -36
3205118, 1710336438, "2024/3/13 13:27:18",  10,  -61,  1000,  0,  0,  0,  -12,  -25,  -36
3205318, 1710336438, "2024/3/13 13:27:18",  10,  -58,  1006,  1,  -1,  -1,  -10,  -27,  -35
3205518, 1710336438, "2024/3/13 13:27:18",  1,  -52,  998,  0,  0,  0,  -11,  -27,  -37
3205718, 1710336438, "2024/3/13 13:27:18",  4,  -56,  1004,  0,  0,  0,  -11,  -27,  -37
3205918, 1710336438, "2024/3/13 13:27:18",  6,  -66,  1003,  0,  0,  -1,  -9,  -26,  -34
3206118, 1710336439, "2024/3/13 13:27:19",  0,  -52,  1003,  0,  0,  -1,  -10,  -26,  -35
3206318, 1710336439, "2024/3/13 13:27:19",  5,  -55,  1003,  0,  0,  -1,  -11,  -26,  -35
3206518, 1710336439, "2024/3/13 13:27:19",  -3,  -69,  998,  0,  -1,  -1,  -11,  -27,  -36
3206718, 1710336439, "2024/3/13 13:27:19",  10,  -52,  1004,  0,  -1,  -1,  -8,  -26,  -36
3206918, 1710336439, "2024/3/13 13:27:19",  10,  -60,  1001,  0,  -1,  -1,  -10,  -28,  -38
3207118, 1710336440, "2024/3/13 13:27:20",  4,  -53,  1001,  0,  0,  -1,  -10,  -27,  -37
3207318, 1710336440, "2024/3/13 13:27:20",  6,  -62,  1004,  0,  0,  -1,  -10,  -27,  -34
3207518, 1710336440, "2024/3/13 13:27:20",  6,  -57,  1003,  0,  0,  0,  -12,  -26,  -36
3207718, 1710336440, "2024/3/13 13:27:20",  6,  -58,  1006,  0,  0,  0,  -11,  -26,  -36
3207918, 1710336440, "2024/3/13 13:27:20",  7,  -61,  1003,  0,  0,  0,  -11,  -27,  -36
3208118, 1710336441, "2024/3/13 13:27:21",  23,  -75,  984,  0,  -1,  -1,  -11,  -27,  -36
3208318, 1710336441, "2024/3/13 13:27:21",  8,  -55,  1004,  0,  0,  -1,  -11,  -25,  -36
3208518, 1710336441, "2024/3/13 13:27:21",  8,  -59,  1007,  0,  -1,  -1,  -11,  -26,  -37
3208718, 1710336441, "2024/3/13 13:27:21",  5,  -55,  1007,  0,  0,  0,  -10,  -25,  -37
3208918, 1710336441, "2024/3/13 13:27:21",  6,  -58,  1007,  0,  0,  0,  -11,  -26,  -37
3209118, 1710336442, "2024/3/13 13:27:22",  8,  -60,  1002,  0,  0,  -1,  -10,  -27,  -38
3209318, 1710336442, "2024/3/13 13:27:22",  1,  -60,  1004,  0,  0,  -1,  -11,  -27,  -37
3209518, 1710336442, "2024/3/13 13:27:22",  1,  -55,  1006,  0,  0,  -1,  -10,  -27,  -36
3209718, 1710336442, "2024/3/13 13:27:22",  6,  -63,  1002,  0,  0,  0,  -12,  -25,  -36
3209918, 1710336442, "2024/3/13 13:27:22",  10,  -59,  1003,  0,  0,  -1,  -11,  -27,  -37
3210118, 1710336443, "2024/3/13 13:27:23",  7,  -58,  1001,  0,  0,  -1,  -10,  -27,  -36
3210318, 1710336443, "2024/3/13 13:27:23",  -5,  -59,  996,  0,  -1,  -1,  -11,  -26,  -38
3210518, 1710336443, "2024/3/13 13:27:23",  1,  -58,  1002,  0,  0,  -1,  -10,  -26,  -36
3210718, 1710336443, "2024/3/13 13:27:23",  2,  -52,  1001,  0,  0,  0,  -9,  -26,  -36
3210918, 1710336443, "2024/3/13 13:27:23",  4,  -60,  1005,  0,  0,  -1,  -11,  -27,  -36
3211118, 1710336444, "2024/3/13 13:27:24",  8,  -55,  1007,  0,  0,  -1,  -10,  -26,  -36
3211318, 1710336444, "2024/3/13 13:27:24",  1,  -58,  1006,  0,  0,  -1,  -11,  -25,  -36
3211518, 1710336444, "2024/3/13 13:27:24",  8,  -43,  999,  0,  0,  -1,  -9,  -26,  -37
3211718, 1710336444, "2024/3/13 13:27:24",  10,  -63,  1000,  0,  0,  -1,  -10,  -27,  -37
3211918, 1710336444, "2024/3/13 13:27:24",  14,  -61,  1006,  0,  -1,  -1,  -11,  -26,  -36
3212118, 1710336445, "2024/3/13 13:27:25",  8,  -60,  1001,  0,  0,  0,  -9,  -25,  -36
3212318, 1710336445, "2024/3/13 13:27:25",  5,  -59,  1003,  0,  0,  -1,  -11,  -27,  -36
3212518, 1710336445, "2024/3/13 13:27:25",  3,  -60,  1004,  0,  0,  0,  -10,  -26,  -37
3212718, 1710336445, "2024/3/13 13:27:25",  11,  -58,  1003,  0,  0,  -1,  -11,  -26,  -36
3212918, 1710336445, "2024/3/13 13:27:25",  5,  -50,  1003,  0,  -1,  -1,  -9,  -26,  -36
3213118, 1710336446, "2024/3/13 13:27:26",  9,  -57,  1005,  0,  0,  0,  -11,  -26,  -37
3213318, 1710336446, "2024/3/13 13:27:26",  9,  -55,  1000,  0,  -1,  -1,  -10,  -28,  -34
3213518, 1710336446, "2024/3/13 13:27:26",  4,  -50,  1020,  0,  0,  -1,  -10,  -26,  -37
3213718, 1710336446, "2024/3/13 13:27:26",  1,  -61,  1006,  0,  0,  -1,  -11,  -26,  -37
3213918, 1710336446, "2024/3/13 13:27:26",  7,  -60,  1005,  0,  0,  0,  -10,  -27,  -36
3214118, 1710336447, "2024/3/13 13:27:27",  2,  -58,  1007,  0,  0,  0,  -11,  -26,  -38
3214318, 1710336447, "2024/3/13 13:27:27",  13,  -51,  1006,  0,  0,  0,  -11,  -28,  -35
3214518, 1710336447, "2024/3/13 13:27:27",  13,  -56,  1006,  0,  0,  0,  -12,  -26,  -36
3214718, 1710336447, "2024/3/13 13:27:27",  10,  -58,  1002,  0,  0,  0,  -11,  -26,  -38
3214918, 1710336447, "2024/3/13 13:27:27",  4,  -56,  1004,  0,  0,  -1,  -11,  -27,  -37
3215118, 1710336448, "2024/3/13 13:27:28",  9,  -57,  1005,  0,  0,  -1,  -11,  -28,  -38
3215318, 1710336448, "2024/3/13 13:27:28",  10,  -63,  1013,  1,  -1,  0,  -11,  -28,  -36
3215518, 1710336448, "2024/3/13 13:27:28",  4,  -66,  1006,  0,  0,  -1,  -11,  -26,  -39
3215718, 1710336448, "2024/3/13 13:27:28",  0,  -66,  999,  1,  -1,  -1,  -10,  -26,  -36
3215918, 1710336448, "2024/3/13 13:27:28",  12,  -64,  1005,  0,  0,  -1,  -11,  -27,  -35
3216118, 1710336449, "2024/3/13 13:27:29",  11,  -59,  1003,  1,  0,  -1,  -11,  -27,  -35
3216318, 1710336449, "2024/3/13 13:27:29",  3,  -62,  1003,  0,  0,  0,  -12,  -26,  -35
3216518, 1710336449, "2024/3/13 13:27:29",  3,  -60,  1003,  0,  0,  -1,  -11,  -25,  -36
3216718, 1710336449, "2024/3/13 13:27:29",  5,  -58,  1002,  0,  0,  -1,  -11,  -27,  -36
3216918, 1710336449, "2024/3/13 13:27:29",  11,  -76,  1025,  0,  0,  0,  -11,  -27,  -37
3217118, 1710336450, "2024/3/13 13:27:30",  8,  -64,  1007,  0,  -1,  0,  -11,  -26,  -37
3217318, 1710336450, "2024/3/13 13:27:30",  9,  -64,  1008,  0,  -1,  -1,  -11,  -26,  -36
3217518, 1710336450, "2024/3/13 13:27:30",  6,  -65,  1006,  0,  0,  0,  -10,  -27,  -36
3217718, 1710336450, "2024/3/13 13:27:30",  5,  -56,  1002,  0,  0,  -1,  -11,  -26,  -37
3217918, 1710336450, "2024/3/13 13:27:30",  2,  -59,  1001,  0,  0,  -1,  -11,  -25,  -36
3218118, 1710336451, "2024/3/13 13:27:31",  -2,  -64,  1002,  0,  0,  -1,  -11,  -28,  -36
3218318, 1710336451, "2024/3/13 13:27:31",  9,  -58,  1006,  0,  0,  0,  -11,  -25,  -37
3218518, 1710336451, "2024/3/13 13:27:31",  5,  -50,  996,  0,  0,  0,  -11,  -26,  -37
3218718, 1710336451, "2024/3/13 13:27:31",  7,  -54,  1001,  0,  0,  -1,  -9,  -26,  -36
3218918, 1710336451, "2024/3/13 13:27:31",  -6,  -50,  994,  0,  -1,  -1,  -9,  -28,  -36
3219118, 1710336452, "2024/3/13 13:27:32",  -6,  -57,  985,  0,  0,  0,  -10,  -25,  -36
3219318, 1710336452, "2024/3/13 13:27:32",  6,  -63,  1004,  0,  -1,  -1,  -9,  -24,  -36
3219518, 1710336452, "2024/3/13 13:27:32",  9,  -56,  1003,  0,  -1,  0,  -11,  -25,  -36
3219718, 1710336452, "2024/3/13 13:27:32",  5,  -56,  1001,  0,  0,  -1,  -10,  -26,  -35
3219918, 1710336452, "2024/3/13 13:27:32",  5,  -53,  1004,  0,  0,  0,  -11,  -26,  -36
3220118, 1710336453, "2024/3/13 13:27:33",  5,  -62,  1006,  0,  0,  -1,  -11,  -27,  -35
3220318, 1710336453, "2024/3/13 13:27:33",  7,  -51,  1003,  0,  -1,  0,  -11,  -27,  -36
3220518, 1710336453, "2024/3/13 13:27:33",  1,  -57,  1003,  0,  0,  -1,  -10,  -25,  -36
3220718, 1710336453, "2024/3/13 13:27:33",  2,  -53,  1000,  0,  0,  0,  -11,  -26,  -36
3220918, 1710336453, "2024/3/13 13:27:33",  5,  -55,  1000,  0,  0,  -1,  -11,  -26,  -38
3221118, 1710336454, "2024/3/13 13:27:34",  6,  -55,  1002,  0,  0,  -1,  -11,  -26,  -37
3221318, 1710336454, "2024/3/13 13:27:34",  2,  -56,  1002,  0,  -1,  -1,  -11,  -26,  -36
3221518, 1710336454, "2024/3/13 13:27:34",  3,  -57,  1003,  0,  0,  0,  -11,  -27,  -36
3221718, 1710336454, "2024/3/13 13:27:34",  4,  -60,  1004,  0,  0,  0,  -10,  -25,  -35
3221918, 1710336454, "2024/3/13 13:27:34",  6,  -58,  1003,  0,  0,  -1,  -10,  -27,  -37
3222118, 1710336455, "2024/3/13 13:27:35",  3,  -54,  1003,  0,  0,  0,  -9,  -26,  -36
3222318, 1710336455, "2024/3/13 13:27:35",  8,  -63,  1002,  0,  0,  -1,  -12,  -27,  -37
3222518, 1710336455, "2024/3/13 13:27:35",  8,  -58,  1002,  0,  0,  -1,  -10,  -27,  -37
3222718, 1710336455, "2024/3/13 13:27:35",  4,  -59,  1003,  0,  0,  0,  -10,  -27,  -38
3222918, 1710336455, "2024/3/13 13:27:35",  1,  -57,  1004,  0,  0,  0,  -10,  -26,  -37
3223118, 1710336456, "2024/3/13 13:27:36",  -1,  -59,  1004,  0,  -1,  0,  -12,  -27,  -36
3223318, 1710336456, "2024/3/13 13:27:36",  8,  -56,  1002,  0,  0,  0,  -12,  -27,  -35
3223518, 1710336456, "2024/3/13 13:27:36",  9,  -58,  1002,  0,  0,  -1,  -10,  -26,  -36
3223718, 1710336456, "2024/3/13 13:27:36",  6,  -56,  1000,  0,  0,  0,  -10,  -26,  -35
3223918, 1710336456, "2024/3/13 13:27:36",  9,  -59,  1004,  0,  0,  0,  -10,  -28,  -36
3224118, 1710336457, "2024/3/13 13:27:37",  6,  -59,  1007,  0,  -1,  -1,  -11,  -27,  -37
3224318, 1710336457, "2024/3/13 13:27:37",  8,  -60,  1005,  0,  0,  0,  -11,  -27,  -36
3224518, 1710336457, "2024/3/13 13:27:37",  4,  -58,  1004,  0,  0,  -1,  -11,  -26,  -36
3224718, 1710336457, "2024/3/13 13:27:37",  3,  -59,  1002,  0,  -1,  -1,  -11,  -27,  -36
3224918, 1710336457, "2024/3/13 13:27:37",  0,  -59,  1003,  0,  0,  0,  -9,  -27,  -36
3225118, 1710336458, "2024/3/13 13:27:38",  3,  -61,  1002,  0,  -1,  -1,  -12,  -27,  -36
3225318, 1710336458, "2024/3/13 13:27:38",  7,  -64,  1004,  0,  0,  0,  -11,  -27,  -36
3225518, 1710336458, "2024/3/13 13:27:38",  6,  -62,  1004,  0,  0,  -1,  -11,  -28,  -37
3225718, 1710336458, "2024/3/13 13:27:38",  7,  -58,  1002,  0,  0,  -1,  -9,  -27,  -37
3225918, 1710336458, "2024/3/13 13:27:38",  6,  -56,  1004,  0,  0,  0,  -11,  -24,  -37
3226118, 1710336459, "2024/3/13 13:27:39",  7,  -66,  1006,  0,  0,  0,  -11,  -26,  -36
3226318, 1710336459, "2024/3/13 13:27:39",  7,  -57,  1001,  0,  0,  -1,  -12,  -27,  -36
3226518, 1710336459, "2024/3/13 13:27:39",  2,  -56,  1002,  0,  0,  0,  -11,  -27,  -36
3226718, 1710336459, "2024/3/13 13:27:39",  3,  -59,  1003,  0,  0,  0,  -10,  -27,  -37
3226918, 1710336459, "2024/3/13 13:27:39",  4,  -57,  1001,  0,  0,  -1,  -9,  -27,  -35
3227118, 1710336460, "2024/3/13 13:27:40",  4,  -59,  1003,  0,  0,  -1,  -11,  -26,  -39
3227318, 1710336460, "2024/3/13 13:27:40",  5,  -49,  1000,  0,  0,  0,  -11,  -27,  -37
3227518, 1710336460, "2024/3/13 13:27:40",  4,  -54,  1003,  0,  0,  -1,  -10,  -27,  -36
3227718, 1710336460, "2024/3/13 13:27:40",  13,  -61,  1007,  0,  0,  0,  -11,  -27,  -37
3227918, 1710336460, "2024/3/13 13:27:40",  8,  -55,  1004,  0,  0,  -1,  -10,  -26,  -36
3228118, 1710336461, "2024/3/13 13:27:41",  13,  -59,  1002,  0,  0,  -1,  -10,  -27,  -36
3228318, 1710336461, "2024/3/13 13:27:41",  8,  -56,  1000,  0,  0,  -1,  -10,  -24,  -36
3228518, 1710336461, "2024/3/13 13:27:41",  3,  -53,  999,  0,  0,  -1,  -10,  -26,  -36
3228718, 1710336461, "2024/3/13 13:27:41",  2,  -56,  1004,  0,  0,  -1,  -10,  -26,  -36
3228918, 1710336461, "2024/3/13 13:27:41",  4,  -60,  1004,  0,  0,  -1,  -12,  -26,  -36
3229118, 1710336462, "2024/3/13 13:27:42",  6,  -57,  1003,  0,  0,  -1,  -10,  -26,  -36
3229318, 1710336462, "2024/3/13 13:27:42",  4,  -58,  1006,  0,  -1,  -1,  -11,  -25,  -37
3229518, 1710336462, "2024/3/13 13:27:42",  5,  -60,  1002,  0,  -1,  -1,  -11,  -25,  -36
3229718, 1710336462, "2024/3/13 13:27:42",  3,  -58,  1002,  0,  0,  0,  -9,  -26,  -37
3229918, 1710336462, "2024/3/13 13:27:42",  9,  -59,  1001,  0,  0,  -1,  -11,  -27,  -36
3230118, 1710336463, "2024/3/13 13:27:43",  6,  -52,  1002,  0,  0,  -1,  -10,  -25,  -36
3230318, 1710336463, "2024/3/13 13:27:43",  9,  -58,  1003,  0,  -1,  -1,  -12,  -27,  -36
3230518, 1710336463, "2024/3/13 13:27:43",  0,  -63,  1005,  0,  0,  0,  -11,  -28,  -37
3230718, 1710336463, "2024/3/13 13:27:43",  3,  -56,  1002,  0,  0,  0,  -10,  -27,  -36
3230918, 1710336463, "2024/3/13 13:27:43",  9,  -60,  1004,  0,  0,  -1,  -10,  -26,  -36
3231118, 1710336464, "2024/3/13 13:27:44",  9,  -52,  1009,  0,  0,  -1,  -10,  -26,  -36
3231318, 1710336464, "2024/3/13 13:27:44",  3,  -59,  999,  0,  0,  0,  -10,  -26,  -37
3231518, 1710336464, "2024/3/13 13:27:44",  2,  -55,  1001,  0,  0,  -1,  -10,  -27,  -36
3231718, 1710336464, "2024/3/13 13:27:44",  4,  -60,  1004,  0,  0,  -1,  -10,  -26,  -37
3231918, 1710336464, "2024/3/13 13:27:44",  10,  -58,  1004,  0,  0,  -1,  -10,  -27,  -37
3232118, 1710336465, "2024/3/13 13:27:45",  6,  -54,  1007,  0,  0,  -1,  -11,  -27,  -36
3232318, 1710336465, "2024/3/13 13:27:45",  2,  -60,  994,  0,  0,  -1,  -11,  -26,  -36
3232518, 1710336465, "2024/3/13 13:27:45",  8,  -52,  1004,  0,  0,  -1,  -12,  -26,  -36
3232718, 1710336465, "2024/3/13 13:27:45",  12,  -47,  999,  0,  0,  -1,  -10,  -26,  -37
3232918, 1710336465, "2024/3/13 13:27:45",  5,  -58,  998,  0,  -1,  -1,  -11,  -27,  -38
3233118, 1710336466, "2024/3/13 13:27:46",  7,  -57,  1009,  0,  0,  -1,  -11,  -26,  -35
3233318, 1710336466, "2024/3/13 13:27:46",  5,  -53,  1002,  0,  -1,  -1,  -10,  -27,  -37
3233518, 1710336466, "2024/3/13 13:27:46",  12,  -61,  1000,  1,  0,  0,  -11,  -26,  -36
3233718, 1710336466, "2024/3/13 13:27:46",  12,  -58,  1015,  0,  0,  -1,  -11,  -25,  -36
3233918, 1710336466, "2024/3/13 13:27:46",  1,  -64,  999,  0,  0,  -1,  -9,  -28,  -36
3234118, 1710336467, "2024/3/13 13:27:47",  2,  -56,  1001,  0,  0,  0,  -12,  -26,  -35
3234318, 1710336467, "2024/3/13 13:27:47",  9,  -58,  1002,  0,  0,  0,  -10,  -27,  -36
3234518, 1710336467, "2024/3/13 13:27:47",  10,  -65,  1002,  0,  0,  -1,  -11,  -27,  -36
3234718, 1710336467, "2024/3/13 13:27:47",  10,  -54,  1011,  0,  -1,  -1,  -10,  -26,  -35
3234918, 1710336467, "2024/3/13 13:27:47",  2,  -61,  1004,  0,  0,  -1,  -11,  -25,  -36
3235118, 1710336468, "2024/3/13 13:27:48",  10,  -59,  1005,  0,  0,  0,  -11,  -24,  -36
3235318, 1710336468, "2024/3/13 13:27:48",  4,  -56,  1002,  0,  0,  -1,  -10,  -27,  -37
3235518, 1710336468, "2024/3/13 13:27:48",  7,  -64,  1006,  0,  0,  -1,  -10,  -26,  -36
3235718, 1710336468, "2024/3/13 13:27:48",  8,  -53,  1002,  0,  -1,  0,  -9,  -27,  -36
3235918, 1710336468, "2024/3/13 13:27:48",  2,  -52,  1004,  0,  -1,  -1,  -10,  -28,  -37
3236118, 1710336469, "2024/3/13 13:27:49",  12,  -52,  1001,  0,  -1,  -1,  -10,  -27,  -37
3236318, 1710336469, "2024/3/13 13:27:49",  5,  -59,  993,  0,  0,  -1,  -10,  -26,  -37
3236518, 1710336469, "2024/3/13 13:27:49",  13,  -61,  1001,  0,  0,  -1,  -11,  -26,  -37
3236718, 1710336469, "2024/3/13 13:27:49",  7,  -57,  1002,  0,  0,  0,  -11,  -27,  -36
3236918, 1710336469, "2024/3/13 13:27:49",  7,  -59,  1003,  0,  0,  -1,  -10,  -25,  -37
3237118, 1710336470, "2024/3/13 13:27:50",  5,  -56,  1000,  0,  0,  0,  -10,  -27,  -36
3237318, 1710336470, "2024/3/13 13:27:50",  0,  -59,  1001,  0,  -1,  -1,  -11,  -26,  -35
3237518, 1710336470, "2024/3/13 13:27:50",  7,  -58,  1004,  0,  0,  -1,  -11,  -26,  -36
3237718, 1710336470, "2024/3/13 13:27:50",  7,  -53,  1007,  0,  -1,  0,  -11,  -27,  -35
3237918, 1710336470, "2024/3/13 13:27:50",  2,  -61,  1007,  0,  0,  0,  -12,  -27,  -36
3238118, 1710336471, "2024/3/13 13:27:51",  5,  -57,  1002,  0,  0,  0,  -11,  -26,  -37
3238318, 1710336471, "2024/3/13 13:27:51",  9,  -65,  1006,  0,  0,  -1,  -10,  -26,  -35
3238518, 1710336471, "2024/3/13 13:27:51",  9,  -63,  1003,  0,  0,  -1,  -11,  -27,  -37
3238718, 1710336471, "2024/3/13 13:27:51",  0,  -56,  1000,  0,  0,  -1,  -11,  -26,  -37
3238918, 1710336471, "2024/3/13 13:27:51",  10,  -58,  997,  0,  0,  0,  -11,  -27,  -36
3239118, 1710336472, "2024/3/13 13:27:52",  10,  -59,  1002,  0,  0,  0,  -10,  -28,  -36
3239318, 1710336472, "2024/3/13 13:27:52",  1,  -56,  1000,  0,  0,  0,  -10,  -25,  -35
3239518, 1710336472, "2024/3/13 13:27:52",  10,  -65,  1012,  0,  0,  -1,  -11,  -27,  -35
3239718, 1710336472, "2024/3/13 13:27:52",  4,  -58,  1004,  0,  0,  -1,  -9,  -26,  -37
3239918, 1710336472, "2024/3/13 13:27:52",  7,  -62,  1005,  0,  0,  -1,  -11,  -27,  -37
3240118, 1710336473, "2024/3/13 13:27:53",  14,  -63,  1003,  0,  0,  0,  -11,  -26,  -39
3240318, 1710336473, "2024/3/13 13:27:53",  7,  -60,  1009,  0,  0,  -1,  -11,  -26,  -36
3240518, 1710336473, "2024/3/13 13:27:53",  4,  -61,  1006,  0,  -1,  -1,  -11,  -25,  -34
3240718, 1710336473, "2024/3/13 13:27:53",  3,  -62,  1003,  0,  0,  0,  -11,  -27,  -35
3240918, 1710336473, "2024/3/13 13:27:53",  10,  -56,  1002,  0,  -1,  -1,  -10,  -27,  -36
3241118, 1710336474, "2024/3/13 13:27:54",  2,  -58,  1009,  0,  0,  0,  -11,  -26,  -35
3241318, 1710336474, "2024/3/13 13:27:54",  6,  -55,  1004,  0,  -1,  -1,  -12,  -26,  -37
3241518, 1710336474, "2024/3/13 13:27:54",  3,  -57,  1001,  0,  0,  -1,  -11,  -26,  -36
3241718, 1710336474, "2024/3/13 13:27:54",  7,  -61,  1008,  0,  0,  -1,  -10,  -26,  -36
3241918, 1710336474, "2024/3/13 13:27:54",  6,  -58,  1004,  0,  0,  -1,  -12,  -27,  -36
3242118, 1710336475, "2024/3/13 13:27:55",  10,  -56,  1003,  0,  0,  0,  -11,  -25,  -38
3242318, 1710336475, "2024/3/13 13:27:55",  8,  -65,  1004,  0,  0,  0,  -10,  -25,  -36
3242518, 1710336475, "2024/3/13 13:27:55",  10,  -59,  1002,  0,  0,  -1,  -11,  -27,  -37
3242718, 1710336475, "2024/3/13 13:27:55",  10,  -64,  1004,  0,  -1,  -1,  -10,  -27,  -37
3242918, 1710336475, "2024/3/13 13:27:55",  7,  -63,  1004,  0,  0,  -1,  -9,  -27,  -37
3243118, 1710336476, "2024/3/13 13:27:56",  7,  -54,  1000,  0,  0,  0,  -11,  -26,  -37
3243318, 1710336476, "2024/3/13 13:27:56",  5,  -55,  1003,  0,  0,  -1,  -11,  -27,  -37
3243518, 1710336476, "2024/3/13 13:27:56",  -33,  -34,  1035,  1,  -1,  -1,  -12,  -26,  -37
3243718, 1710336476, "2024/3/13 13:27:56",  4,  -63,  1005,  0,  0,  -1,  -9,  -27,  -36
3243918, 1710336476, "2024/3/13 13:27:56",  7,  -64,  1003,  0,  0,  -1,  -11,  -26,  -36
3244118, 1710336477, "2024/3/13 13:27:57",  7,  -59,  1005,  0,  0,  -1,  -12,  -27,  -36
3244318, 1710336477, "2024/3/13 13:27:57",  9,  -61,  1005,  0,  0,  -1,  -11,  -28,  -37
3244518, 1710336477, "2024/3/13 13:27:57",  7,  -52,  996,  0,  0,  0,  -9,  -28,  -36
3244718, 1710336477, "2024/3/13 13:27:57",  41,  -40,  1016,  -1,  1,  -1,  -11,  -26,  -37
3244918, 1710336477, "2024/3/13 13:27:57",  2,  -58,  1002,  0,  0,  -1,  -11,  -27,  -36
3245118, 1710336478, "2024/3/13 13:27:58",  3,  -57,  1004,  0,  0,  -1,  -11,  -26,  -36
3245318, 1710336478, "2024/3/13 13:27:58",  -1,  -62,  1003,  0,  0,  0,  -11,  -27,  -35
3245518, 1710336478, "2024/3/13 13:27:58",  -3,  -61,  1004,  0,  -1,  -1,  -9,  -28,  -37
3245718, 1710336478, "2024/3/13 13:27:58",  1,  -53,  1000,  0,  0,  -1,  -10,  -27,  -36
3245918, 1710336478, "2024/3/13 13:27:58",  2,  -59,  1001,  0,  0,  0,  -10,  -25,  -36
3246118, 1710336479, "2024/3/13 13:27:59",  3,  -58,  1004,  0,  0,  -1,  -10,  -27,  -36
3246318, 1710336479, "2024/3/13 13:27:59",  6,  -58,  1004,  0,  0,  -1,  -11,  -26,  -36
3246518, 1710336479, "2024/3/13 13:27:59",  7,  -60,  1003,  0,  0,  -1,  -11,  -25,  -37
3246718, 1710336479, "2024/3/13 13:27:59",  3,  -60,  1003,  0,  0,  0,  -10,  -25,  -36
3246918, 1710336479, "2024/3/13 13:27:59",  9,  -55,  1003,  1,  0,  -1,  -9,  -27,  -38
3247118, 1710336480, "2024/3/13 13:28:0",  8,  -64,  1007,  0,  0,  -1,  -10,  -26,  -37
3247318, 1710336480, "2024/3/13 13:28:0",  7,  -64,  1004,  0,  0,  0,  -11,  -26,  -36
3247518, 1710336480, "2024/3/13 13:28:0",  12,  -57,  997,  1,  0,  0,  -10,  -25,  -35
3247718, 1710336480, "2024/3/13 13:28:0",  2,  -61,  1004,  0,  0,  0,  -10,  -26,  -38
3247918, 1710336480, "2024/3/13 13:28:0",  5,  -47,  1000,  0,  -1,  -1,  -10,  -27,  -36
3248118, 1710336481, "2024/3/13 13:28:1",  7,  -50,  1002,  0,  0,  -1,  -12,  -26,  -38
3248318, 1710336481, "2024/3/13 13:28:1",  4,  -64,  1009,  0,  0,  -1,  -10,  -27,  -35
3248518, 1710336481, "2024/3/13 13:28:1",  4,  -58,  1004,  0,  0,  -1,  -12,  -26,  -38
3248718, 1710336481, "2024/3/13 13:28:1",  11,  -65,  1014,  0,  0,  -1,  -10,  -26,  -37
3248918, 1710336481, "2024/3/13 13:28:1",  9,  -61,  1003,  0,  0,  -1,  -10,  -26,  -38
3249118, 1710336482, "2024/3/13 13:28:2",  9,  -58,  1002,  0,  0,  -1,  -10,  -26,  -36
3249318, 1710336482, "2024/3/13 13:28:2",  8,  -58,  1001,  0,  -1,  -1,  -9,  -26,  -37
3249518, 1710336482, "2024/3/13 13:28:2",  9,  -63,  1002,  0,  0,  0,  -10,  -25,  -35
3249718, 1710336482, "2024/3/13 13:28:2",  6,  -58,  1001,  0,  0,  -1,  -10,  -25,  -36
3249918, 1710336482, "2024/3/13 13:28:2",  8,  -54,  1002,  0,  0,  -1,  -9,  -25,  -35
3250118, 1710336483, "2024/3/13 13:28:3",  9,  -55,  1002,  0,  -1,  -1,  -10,  -27,  -35
3250318, 1710336483, "2024/3/13 13:28:3",  -5,  -65,  1008,  0,  0,  0,  -11,  -26,  -36
3250518, 1710336483, "2024/3/13 13:28:3",  9,  -60,  1009,  0,  0,  -1,  -10,  -26,  -35
3250718, 1710336483, "2024/3/13 13:28:3",  -1,  -74,  1002,  0,  0,  -1,  -10,  -27,  -37
3250918, 1710336483, "2024/3/13 13:28:3",  2,  -74,  1004,  0,  -1,  -1,  -9,  -26,  -36
3251118, 1710336484, "2024/3/13 13:28:4",  0,  -59,  1001,  0,  0,  -1,  -10,  -26,  -36
3251318, 1710336484, "2024/3/13 13:28:4",  1,  -60,  1002,  0,  0,  -1,  -10,  -26,  -37
3251518, 1710336484, "2024/3/13 13:28:4",  2,  -46,  1002,  0,  0,  -1,  -10,  -26,  -36
3251718, 1710336484, "2024/3/13 13:28:4",  3,  -66,  1005,  0,  0,  0,  -10,  -26,  -38
3251918, 1710336484, "2024/3/13 13:28:4",  5,  -64,  1008,  0,  0,  -1,  -11,  -28,  -35
3252118, 1710336485, "2024/3/13 13:28:5",  -3,  -51,  1001,  0,  0,  0,  -11,  -26,  -38
3252318, 1710336485, "2024/3/13 13:28:5",  8,  -46,  1006,  0,  0,  0,  -11,  -28,  -36
3252518, 1710336485, "2024/3/13 13:28:5",  4,  -57,  1003,  0,  0,  0,  -11,  -28,  -35
3252718, 1710336485, "2024/3/13 13:28:5",  7,  -53,  996,  0,  0,  0,  -10,  -26,  -36
3252918, 1710336485, "2024/3/13 13:28:5",  3,  -56,  1002,  0,  0,  -1,  -10,  -27,  -37
3253118, 1710336486, "2024/3/13 13:28:6",  6,  -59,  1002,  0,  -1,  0,  -10,  -26,  -35
3253318, 1710336486, "2024/3/13 13:28:6",  4,  -66,  1003,  0,  0,  -1,  -10,  -26,  -37
3253518, 1710336486, "2024/3/13 13:28:6",  2,  -51,  1001,  0,  0,  -1,  -9,  -27,  -37
3253718, 1710336486, "2024/3/13 13:28:6",  6,  -54,  1004,  0,  0,  -1,  -9,  -26,  -37
3253918, 1710336486, "2024/3/13 13:28:6",  3,  -56,  1002,  0,  -1,  -1,  -12,  -26,  -36
3254118, 1710336487, "2024/3/13 13:28:7",  0,  -60,  1006,  0,  0,  -1,  -10,  -27,  -36
3254318, 1710336487, "2024/3/13 13:28:7",  6,  -61,  1003,  0,  0,  -1,  -11,  -28,  -36
3254518, 1710336487, "2024/3/13 13:28:7",  6,  -54,  1006,  0,  0,  -1,  -10,  -27,  -36
3254718, 1710336487, "2024/3/13 13:28:7",  5,  -57,  1001,  0,  0,  -1,  -11,  -27,  -37
3254918, 1710336487, "2024/3/13 13:28:7",  8,  -54,  1001,  0,  0,  -1,  -10,  -28,  -36
3255118, 1710336488, "2024/3/13 13:28:8",  4,  -58,  1003,  0,  0,  -1,  -12,  -27,  -36
3255318, 1710336488, "2024/3/13 13:28:8",  8,  -57,  1005,  0,  0,  0,  -12,  -27,  -37
3255518, 1710336488, "2024/3/13 13:28:8",  8,  -64,  1000,  0,  0,  -1,  -11,  -27,  -38
3255718, 1710336488, "2024/3/13 13:28:8",  7,  -55,  1003,  0,  0,  -1,  -13,  -26,  -37
3255918, 1710336488, "2024/3/13 13:28:8",  -1,  -54,  1003,  0,  0,  0,  -11,  -26,  -36
3256118, 1710336489, "2024/3/13 13:28:9",  8,  -55,  1001,  0,  0,  -1,  -9,  -26,  -36
3256318, 1710336489, "2024/3/13 13:28:9",  6,  -61,  1004,  0,  0,  -1,  -11,  -28,  -37
3256518, 1710336489, "2024/3/13 13:28:9",  5,  -48,  1001,  0,  0,  -1,  -10,  -27,  -35
3256718, 1710336489, "2024/3/13 13:28:9",  6,  -57,  1005,  0,  0,  0,  -10,  -25,  -37
3256918, 1710336489, "2024/3/13 13:28:9",  5,  -62,  1004,  0,  0,  -1,  -10,  -26,  -37
3257118, 1710336490, "2024/3/13 13:28:10",  2,  -60,  1003,  0,  0,  -1,  -12,  -26,  -36
3257318, 1710336490, "2024/3/13 13:28:10",  0,  -55,  1006,  0,  0,  -1,  -10,  -26,  -37
3257518, 1710336490, "2024/3/13 13:28:10",  5,  -55,  1002,  0,  0,  -1,  -10,  -28,  -36
3257718, 1710336490, "2024/3/13 13:28:10",  3,  -55,  1004,  0,  0,  -1,  -10,  -27,  -37
3257918, 1710336490, "2024/3/13 13:28:10",  5,  -58,  1001,  0,  0,  0,  -9,  -27,  -36
3258118, 1710336491, "2024/3/13 13:28:11",  8,  -60,  1006,  0,  0,  0,  -11,  -26,  -37
3258318, 1710336491, "2024/3/13 13:28:11",  10,  -57,  1001,  0,  0,  -1,  -11,  -26,  -35
3258518, 1710336491, "2024/3/13 13:28:11",  5,  -57,  1001,  0,  0,  -1,  -12,  -27,  -36
3258718, 1710336491, "2024/3/13 13:28:11",  5,  -62,  1006,  0,  0,  -1,  -10,  -27,  -34
3258918, 1710336491, "2024/3/13 13:28:11",  9,  -54,  1006,  0,  0,  -1,  -10,  -26,  -36
3259118, 1710336492, "2024/3/13 13:28:12",  3,  -58,  1002,  0,  -1,  -1,  -10,  -28,  -36
3259318, 1710336492, "2024/3/13 13:28:12",  6,  -60,  1002,  0,  0,  0,  -11,  -28,  -37
3259518, 1710336492, "2024/3/13 13:28:12",  1,  -56,  1006,  0,  -1,  0,  -11,  -28,  -36
3259718, 1710336492, "2024/3/13 13:28:12",  8,  -55,  1002,  0,  0,  -1,  -11,  -27,  -36
3259918, 1710336492, "2024/3/13 13:28:12",  2,  -58,  1001,  0,  0,  0,  -12,  -27,  -36
3260118, 1710336493, "2024/3/13 13:28:13",  2,  -63,  1005,  0,  0,  0,  -10,  -27,  -36
3260318, 1710336493, "2024/3/13 13:28:13",  4,  -59,  1005,  0,  0,  -1,  -10,  -28,  -35
3260518, 1710336493, "2024/3/13 13:28:13",  2,  -63,  1003,  0,  -1,  -1,  -10,  -26,  -37
3260718, 1710336493, "2024/3/13 13:28:13",  6,  -56,  1003,  0,  0,  -1,  -10,  -25,  -37
3260918, 1710336493, "2024/3/13 13:28:13",  0,  -53,  1005,  0,  0,  0,  -10,  -26,  -37
3261118, 1710336494, "2024/3/13 13:28:14",  5,  -58,  1002,  0,  -1,  0,  -11,  -27,  -36
3261318, 1710336494, "2024/3/13 13:28:14",  11,  -57,  1003,  0,  0,  -1,  -11,  -25,  -36
3261518, 1710336494, "2024/3/13 13:28:14",  8,  -55,  1001,  0,  -1,  0,  -12,  -26,  -37
3261718, 1710336494, "2024/3/13 13:28:14",  5,  -58,  1000,  0,  0,  0,  -10,  -25,  -37
3261918, 1710336494, "2024/3/13 13:28:14",  7,  -60,  1003,  0,  0,  0,  -11,  -26,  -34
3262118, 1710336495, "2024/3/13 13:28:15",  5,  -59,  1002,  0,  0,  -1,  -10,  -26,  -36
3262318, 1710336495, "2024/3/13 13:28:15",  7,  -58,  1000,  0,  0,  -1,  -11,  -27,  -35
3262518, 1710336495, "2024/3/13 13:28:15",  4,  -54,  1003,  0,  0,  -1,  -11,  -27,  -35
3262718, 1710336495, "2024/3/13 13:28:15",  5,  -58,  1005,  0,  0,  -1,  -10,  -27,  -37
3262918, 1710336495, "2024/3/13 13:28:15",  0,  -58,  1006,  0,  -1,  -1,  -12,  -25,  -37
3263118, 1710336496, "2024/3/13 13:28:16",  8,  -56,  1001,  0,  0,  -1,  -11,  -28,  -36
3263318, 1710336496, "2024/3/13 13:28:16",  4,  -59,  1004,  0,  0,  0,  -11,  -27,  -37
3263518, 1710336496, "2024/3/13 13:28:16",  3,  -56,  1004,  0,  0,  -1,  -10,  -26,  -36
3263718, 1710336496, "2024/3/13 13:28:16",  5,  -57,  1005,  0,  0,  0,  -10,  -27,  -36
3263918, 1710336496, "2024/3/13 13:28:16",  7,  -58,  1001,  0,  0,  -1,  -11,  -26,  -36
3264118, 1710336497, "2024/3/13 13:28:17",  6,  -58,  1002,  0,  -1,  -1,  -10,  -26,  -34
3264318, 1710336497, "2024/3/13 13:28:17",  6,  -59,  1001,  0,  0,  0,  -10,  -25,  -38
3264518, 1710336497, "2024/3/13 13:28:17",  9,  -58,  1001,  0,  0,  0,  -11,  -26,  -37
3264718, 1710336497, "2024/3/13 13:28:17",  8,  -58,  1003,  0,  0,  -1,  -11,  -27,  -36
3264918, 1710336497, "2024/3/13 13:28:17",  4,  -58,  1001,  0,  0,  -1,  -11,  -27,  -35
3265118, 1710336498, "2024/3/13 13:28:18",  7,  -60,  1002,  0,  0,  -1,  -11,  -27,  -37
3265318, 1710336498, "2024/3/13 13:28:18",  2,  -57,  1003,  0,  0,  -1,  -10,  -26,  -36
3265518, 1710336498, "2024/3/13 13:28:18",  8,  -61,  1003,  0,  0,  -1,  -10,  -27,  -35
3265718, 1710336498, "2024/3/13 13:28:18",  7,  -51,  1003,  0,  0,  0,  -11,  -25,  -37
3265918, 1710336498, "2024/3/13 13:28:18",  6,  -62,  1003,  0,  0,  0,  -11,  -26,  -38
3266118, 1710336499, "2024/3/13 13:28:19",  4,  -59,  1003,  0,  0,  0,  -10,  -26,  -37
3266318, 1710336499, "2024/3/13 13:28:19",  6,  -56,  1001,  0,  0,  0,  -9,  -26,  -36
3266518, 1710336499, "2024/3/13 13:28:19",  8,  -59,  1003,  0,  -1,  -1,  -10,  -27,  -36
3266718, 1710336499, "2024/3/13 13:28:19",  4,  -55,  1003,  0,  -1,  -1,  -10,  -25,  -37
3266918, 1710336499, "2024/3/13 13:28:19",  5,  -55,  1005,  0,  -1,  -1,  -9,  -27,  -37
3267118, 1710336500, "2024/3/13 13:28:20",  7,  -57,  1002,  0,  -1,  -1,  -11,  -26,  -38
3267318, 1710336500, "2024/3/13 13:28:20",  8,  -61,  1001,  0,  -1,  0,  -10,  -26,  -36
3267518, 1710336500, "2024/3/13 13:28:20",  1,  -56,  1005,  0,  0,  0,  -11,  -28,  -36
3267718, 1710336500, "2024/3/13 13:28:20",  3,  -60,  1005,  0,  0,  -1,  -11,  -27,  -37
3267918, 1710336500, "2024/3/13 13:28:20",  5,  -53,  1004,  0,  -1,  -1,  -11,  -26,  -37
3268118, 1710336501, "2024/3/13 13:28:21",  6,  -59,  1006,  0,  -1,  -1,  -10,  -27,  -37
3268318, 1710336501, "2024/3/13 13:28:21",  2,  -61,  1002,  0,  0,  0,  -11,  -26,  -36
3268518, 1710336501, "2024/3/13 13:28:21",  7,  -57,  1001,  0,  0,  -1,  -10,  -28,  -36
3268718, 1710336501, "2024/3/13 13:28:21",  12,  -57,  1003,  0,  0,  -1,  -10,  -25,  -35
3268918, 1710336501, "2024/3/13 13:28:21",  5,  -57,  1003,  0,  0,  0,  -11,  -27,  -36
3269118, 1710336502, "2024/3/13 13:28:22",  5,  -56,  1005,  0,  -1,  0,  -10,  -26,  -36
3269318, 1710336502, "2024/3/13 13:28:22",  10,  -60,  1003,  0,  -1,  0,  -11,  -26,  -35
3269518, 1710336502, "2024/3/13 13:28:22",  6,  -57,  1005,  0,  0,  -1,  -9,  -28,  -37
3269718, 1710336502, "2024/3/13 13:28:22",  3,  -58,  1002,  0,  0,  -1,  -10,  -27,  -36
3269918, 1710336502, "2024/3/13 13:28:22",  3,  -63,  1001,  0,  0,  -1,  -10,  -25,  -36
3270118, 1710336503, "2024/3/13 13:28:23",  5,  -57,  999,  0,  0,  0,  -12,  -27,  -38
3270318, 1710336503, "2024/3/13 13:28:23",  1,  -55,  1006,  0,  -1,  -1,  -11,  -27,  -35
3270518, 1710336503, "2024/3/13 13:28:23",  2,  -61,  1002,  0,  0,  -1,  -12,  -28,  -36
3270718, 1710336503, "2024/3/13 13:28:23",  4,  -53,  1002,  0,  0,  -1,  -11,  -26,  -35
3270918, 1710336503, "2024/3/13 13:28:23",  6,  -61,  1005,  0,  0,  -1,  -11,  -27,  -37
3271118, 1710336504, "2024/3/13 13:28:24",  5,  -56,  999,  0,  0,  -1,  -10,  -26,  -38
3271318, 1710336504, "2024/3/13 13:28:24",  5,  -64,  1004,  0,  -1,  0,  -10,  -26,  -36
3271518, 1710336504, "2024/3/13 13:28:24",  3,  -58,  1003,  0,  0,  0,  -11,  -26,  -36
3271718, 1710336504, "2024/3/13 13:28:24",  2,  -58,  1004,  0,  -1,  -1,  -11,  -26,  -36
3271918, 1710336504, "2024/3/13 13:28:24",  7,  -59,  1005,  0,  0,  -1,  -11,  -26,  -36
3272118, 1710336505, "2024/3/13 13:28:25",  4,  -60,  998,  0,  -1,  -1,  -11,  -27,  -37
3272318, 1710336505, "2024/3/13 13:28:25",  -9,  -37,  1015,  0,  -1,  -1,  -10,  -24,  -36
3272518, 1710336505, "2024/3/13 13:28:25",  6,  -63,  1003,  0,  0,  0,  -10,  -25,  -37
3272718, 1710336505, "2024/3/13 13:28:25",  12,  -57,  1004,  0,  0,  -1,  -11,  -26,  -35
3272918, 1710336505, "2024/3/13 13:28:25",  8,  -61,  1005,  0,  0,  -1,  -10,  -26,  -37
3273118, 1710336506, "2024/3/13 13:28:26",  5,  -64,  1002,  0,  -1,  -1,  -12,  -28,  -37
3273318, 1710336506, "2024/3/13 13:28:26",  5,  -57,  999,  0,  0,  0,  -9,  -27,  -36
3273518, 1710336506, "2024/3/13 13:28:26",  5,  -54,  1004,  0,  0,  -1,  -12,  -25,  -36
3273718, 1710336506, "2024/3/13 13:28:26",  7,  -57,  1002,  0,  0,  -1,  -11,  -28,  -37
3273918, 1710336506, "2024/3/13 13:28:26",  3,  -58,  1002,  0,  0,  -1,  -11,  -27,  -37
3274118, 1710336507, "2024/3/13 13:28:27",  3,  -62,  1003,  0,  0,  0,  -12,  -27,  -38
3274318, 1710336507, "2024/3/13 13:28:27",  6,  -54,  1005,  0,  0,  0,  -9,  -27,  -36
3274518, 1710336507, "2024/3/13 13:28:27",  2,  -58,  1002,  0,  0,  -1,  -11,  -26,  -35
3274718, 1710336507, "2024/3/13 13:28:27",  0,  -65,  1004,  0,  0,  -1,  -9,  -26,  -37
3274918, 1710336507, "2024/3/13 13:28:27",  1,  -55,  1004,  0,  0,  -1,  -11,  -27,  -38
3275118, 1710336508, "2024/3/13 13:28:28",  2,  -64,  1001,  0,  0,  -1,  -11,  -27,  -37
3275318, 1710336508, "2024/3/13 13:28:28",  6,  -59,  1004,  0,  0,  0,  -11,  -25,  -38
3275518, 1710336508, "2024/3/13 13:28:28",  6,  -52,  1005,  0,  0,  0,  -12,  -25,  -37
3275718, 1710336508, "2024/3/13 13:28:28",  5,  -69,  1007,  0,  0,  -1,  -11,  -27,  -37
3275918, 1710336508, "2024/3/13 13:28:28",  10,  -57,  1001,  0,  -1,  -1,  -10,  -27,  -36
3276118, 1710336509, "2024/3/13 13:28:29",  6,  -60,  1001,  0,  0,  0,  -11,  -26,  -37
3276318, 1710336509, "2024/3/13 13:28:29",  0,  -56,  1001,  0,  0,  0,  -11,  -25,  -36
3276518, 1710336509, "2024/3/13 13:28:29",  4,  -58,  1002,  0,  0,  -1,  -10,  -26,  -37
3276718, 1710336509, "2024/3/13 13:28:29",  8,  -58,  1003,  0,  0,  0,  -10,  -26,  -37
3276918, 1710336509, "2024/3/13 13:28:29",  7,  -58,  1002,  0,  0,  0,  -11,  -26,  -36
3277118, 1710336510, "2024/3/13 13:28:30",  3,  -59,  1003,  0,  0,  -1,  -11,  -27,  -36
3277318, 1710336510, "2024/3/13 13:28:30",  9,  -57,  1001,  0,  0,  -1,  -11,  -26,  -36
3277518, 1710336510, "2024/3/13 13:28:30",  8,  -53,  999,  0,  0,  -1,  -10,  -27,  -36
3277718, 1710336510, "2024/3/13 13:28:30",  7,  -58,  1007,  0,  0,  -1,  -11,  -26,  -36
3277918, 1710336510, "2024/3/13 13:28:30",  5,  -55,  1005,  0,  0,  -1,  -11,  -27,  -38
3278118, 1710336511, "2024/3/13 13:28:31",  3,  -61,  1001,  0,  0,  0,  -11,  -26,  -36
3278318, 1710336511, "2024/3/13 13:28:31",  7,  -61,  1005,  0,  0,  0,  -10,  -27,  -37
3278518, 1710336511, "2024/3/13 13:28:31",  11,  -63,  1003,  0,  -1,  -1,  -10,  -26,  -39
3278718, 1710336511, "2024/3/13 13:28:31",  4,  -59,  1003,  0,  0,  -1,  -10,  -26,  -36
3278918, 1710336511, "2024/3/13 13:28:31",  4,  -64,  1004,  0,  0,  0,  -12,  -27,  -37
3279118, 1710336512, "2024/3/13 13:28:32",  4,  -63,  1006,  0,  0,  0,  -10,  -26,  -37
3279318, 1710336512, "2024/3/13 13:28:32",  1,  -55,  1003,  0,  0,  0,  -11,  -26,  -39
3279518, 1710336512, "2024/3/13 13:28:32",  10,  -59,  1002,  0,  0,  -1,  -10,  -27,  -37
3279718, 1710336512, "2024/3/13 13:28:32",  6,  -61,  1001,  0,  0,  0,  -10,  -27,  -37
3279918, 1710336512, "2024/3/13 13:28:32",  3,  -62,  1005,  0,  0,  -1,  -11,  -27,  -36
3280118, 1710336513, "2024/3/13 13:28:33",  5,  -54,  1005,  0,  0,  -1,  -11,  -27,  -37
3280318, 1710336513, "2024/3/13 13:28:33",  6,  -56,  1004,  0,  0,  -1,  -10,  -27,  -37
3280518, 1710336513, "2024/3/13 13:28:33",  9,  -54,  1007,  0,  0,  -1,  -9,  -27,  -37
3280718, 1710336513, "2024/3/13 13:28:33",  0,  -60,  1000,  0,  0,  0,  -11,  -27,  -36
3280918, 1710336513, "2024/3/13 13:28:33",  5,  -57,  1001,  0,  0,  0,  -10,  -26,  -35
3281118, 1710336514, "2024/3/13 13:28:34",  7,  -62,  1004,  0,  0,  -1,  -10,  -27,  -36
3281318, 1710336514, "2024/3/13 13:28:34",  4,  -57,  1001,  0,  0,  -1,  -12,  -26,  -37
3281518, 1710336514, "2024/3/13 13:28:34",  10,  -61,  1002,  0,  0,  0,  -10,  -27,  -38
3281718, 1710336514, "2024/3/13 13:28:34",  3,  -58,  1005,  0,  0,  -1,  -11,  -26,  -36
3281918, 1710336514, "2024/3/13 13:28:34",  5,  -58,  1006,  0,  0,  0,  -10,  -28,  -36
3282118, 1710336515, "2024/3/13 13:28:35",  5,  -58,  999,  1,  0,  0,  -11,  -25,  -36
3282318, 1710336515, "2024/3/13 13:28:35",  4,  -49,  1004,  0,  0,  -1,  -9,  -26,  -36
3282518, 1710336515, "2024/3/13 13:28:35",  8,  -61,  1003,  0,  0,  0,  -11,  -27,  -37
3282718, 1710336515, "2024/3/13 13:28:35",  3,  -61,  1003,  0,  0,  0,  -11,  -28,  -36
3282918, 1710336515, "2024/3/13 13:28:35",  5,  -55,  1006,  0,  -1,  -1,  -10,  -27,  -36
3283118, 1710336516, "2024/3/13 13:28:36",  9,  -55,  1000,  0,  0,  -1,  -12,  -27,  -37
3283318, 1710336516, "2024/3/13 13:28:36",  6,  -56,  1004,  0,  0,  -1,  -10,  -27,  -36
3283518, 1710336516, "2024/3/13 13:28:36",  6,  -62,  1003,  0,  0,  0,  -10,  -26,  -38
3283718, 1710336516, "2024/3/13 13:28:36",  7,  -54,  1000,  0,  0,  -1,  -10,  -27,  -36
3283918, 1710336516, "2024/3/13 13:28:36",  2,  -58,  1005,  0,  0,  -1,  -10,  -26,  -37
3284118, 1710336517, "2024/3/13 13:28:37",  3,  -65,  1004,  0,  0,  -1,  -11,  -25,  -37
3284318, 1710336517, "2024/3/13 13:28:37",  4,  -58,  1003,  0,  0,  -1,  -10,  -28,  -37
3284518, 1710336517, "2024/3/13 13:28:37",  0,  -58,  1008,  0,  0,  -1,  -10,  -27,  -36
3284718, 1710336517, "2024/3/13 13:28:37",  4,  -55,  1002,  0,  0,  -1,  -11,  -27,  -36
3284918, 1710336517, "2024/3/13 13:28:37",  6,  -59,  1003,  0,  0,  -1,  -9,  -27,  -36
3285118, 1710336518, "2024/3/13 13:28:38",  -8,  -70,  934,  1,  -1,  0,  -11,  -28,  -36
3285318, 1710336518, "2024/3/13 13:28:38",  2,  -58,  998,  0,  0,  -1,  -12,  -26,  -35
3285518, 1710336518, "2024/3/13 13:28:38",  3,  -54,  999,  0,  0,  0,  -11,  -25,  -36
3285718, 1710336518, "2024/3/13 13:28:38",  3,  -55,  1002,  0,  0,  -1,  -11,  -27,  -37
3285918, 1710336518, "2024/3/13 13:28:38",  1,  -51,  1000,  0,  0,  0,  -11,  -26,  -37
3286118, 1710336519, "2024/3/13 13:28:39",  5,  -59,  1004,  0,  0,  0,  -10,  -27,  -36
3286318, 1710336519, "2024/3/13 13:28:39",  7,  -58,  1001,  0,  0,  0,  -10,  -27,  -37
3286518, 1710336519, "2024/3/13 13:28:39",  4,  -59,  1003,  0,  0,  -1,  -10,  -27,  -37
3286718, 1710336519, "2024/3/13 13:28:39",  2,  -56,  1006,  0,  -1,  -1,  -10,  -26,  -37
3286918, 1710336519, "2024/3/13 13:28:39",  7,  -57,  998,  0,  0,  -1,  -11,  -26,  -36
3287118, 1710336520, "2024/3/13 13:28:40",  10,  -57,  1005,  0,  0,  -1,  -10,  -25,  -36
3287318, 1710336520, "2024/3/13 13:28:40",  13,  -58,  1010,  0,  0,  -1,  -11,  -27,  -36
3287518, 1710336520, "2024/3/13 13:28:40",  1,  -53,  1012,  0,  -1,  -1,  -11,  -27,  -35
3287718, 1710336520, "2024/3/13 13:28:40",  7,  -57,  1002,  0,  0,  -1,  -10,  -27,  -36
3287918, 1710336520, "2024/3/13 13:28:40",  3,  -67,  995,  0,  -1,  -1,  -9,  -27,  -36
3288118, 1710336521, "2024/3/13 13:28:41",  2,  -56,  1000,  0,  0,  0,  -9,  -27,  -37
3288318, 1710336521, "2024/3/13 13:28:41",  6,  -60,  1005,  0,  0,  -1,  -11,  -25,  -36
3288518, 1710336521, "2024/3/13 13:28:41",  -1,  -65,  1003,  0,  -1,  0,  -10,  -28,  -37
3288718, 1710336521, "2024/3/13 13:28:41",  3,  -56,  1005,  0,  0,  -1,  -11,  -25,  -36
3288918, 1710336521, "2024/3/13 13:28:41",  8,  -58,  1003,  0,  0,  0,  -9,  -27,  -39
3289118, 1710336522, "2024/3/13 13:28:42",  7,  -61,  1005,  0,  0,  -1,  -10,  -26,  -37
3289318, 1710336522, "2024/3/13 13:28:42",  6,  -54,  1002,  0,  0,  0,  -11,  -25,  -36
3289518, 1710336522, "2024/3/13 13:28:42",  3,  -64,  1003,  0,  -1,  -1,  -9,  -27,  -37
3289718, 1710336522, "2024/3/13 13:28:42",  6,  -55,  1003,  0,  -1,  -1,  -11,  -26,  -36
3289918, 1710336522, "2024/3/13 13:28:42",  1,  -55,  1006,  0,  0,  -1,  -11,  -27,  -38
3290118, 1710336523, "2024/3/13 13:28:43",  -2,  -63,  1001,  0,  0,  -1,  -10,  -26,  -36
3290318, 1710336523, "2024/3/13 13:28:43",  0,  -60,  1002,  0,  0,  0,  -11,  -27,  -38
3290518, 1710336523, "2024/3/13 13:28:43",  2,  -59,  1000,  0,  0,  0,  -11,  -26,  -36
3290718, 1710336523, "2024/3/13 13:28:43",  11,  -56,  1000,  0,  -1,  -1,  -9,  -26,  -36
3290918, 1710336523, "2024/3/13 13:28:43",  4,  -53,  1004,  0,  0,  -1,  -10,  -26,  -36
3291118, 1710336524, "2024/3/13 13:28:44",  6,  -59,  1003,  0,  0,  -1,  -9,  -27,  -35
3291318, 1710336524, "2024/3/13 13:28:44",  5,  -58,  1005,  0,  0,  0,  -10,  -26,  -37
3291518, 1710336524, "2024/3/13 13:28:44",  8,  -56,  1004,  0,  0,  -1,  -11,  -26,  -37
3291718, 1710336524, "2024/3/13 13:28:44",  1,  -59,  1006,  0,  -1,  0,  -11,  -26,  -37
3291918, 1710336524, "2024/3/13 13:28:44",  5,  -58,  1000,  0,  0,  0,  -9,  -26,  -38
3292118, 1710336525, "2024/3/13 13:28:45",  -1,  -59,  1003,  0,  0,  -1,  -10,  -27,  -37
3292318, 1710336525, "2024/3/13 13:28:45",  6,  -63,  1004,  0,  -1,  -1,  -10,  -27,  -37
3292518, 1710336525, "2024/3/13 13:28:45",  7,  -53,  1005,  0,  0,  -1,  -9,  -27,  -37
3292718, 1710336525, "2024/3/13 13:28:45",  6,  -61,  1002,  0,  0,  0,  -12,  -25,  -36
3292918, 1710336525, "2024/3/13 13:28:45",  5,  -58,  1001,  0,  0,  0,  -9,  -27,  -36
3293118, 1710336526, "2024/3/13 13:28:46",  1,  -57,  1001,  0,  0,  0,  -11,  -26,  -36
3293318, 1710336526, "2024/3/13 13:28:46",  5,  -57,  1000,  0,  0,  -1,  -9,  -27,  -37
3293518, 1710336526, "2024/3/13 13:28:46",  9,  -51,  1003,  0,  0,  -1,  -10,  -28,  -36
3293718, 1710336526, "2024/3/13 13:28:46",  1,  -66,  1007,  0,  0,  -1,  -11,  -25,  -36
3293918, 1710336526, "2024/3/13 13:28:46",  5,  -57,  1004,  0,  0,  -1,  -11,  -26,  -37
3294118, 1710336527, "2024/3/13 13:28:47",  7,  -56,  999,  0,  0,  0,  -11,  -25,  -36
3294318, 1710336527, "2024/3/13 13:28:47",  3,  -60,  1000,  0,  0,  0,  -11,  -25,  -36
3294518, 1710336527, "2024/3/13 13:28:47",  1,  -57,  1002,  0,  0,  -1,  -11,  -25,  -36
3294718, 1710336527, "2024/3/13 13:28:47",  3,  -59,  1002,  0,  0,  -1,  -10,  -26,  -37
3294918, 1710336527, "2024/3/13 13:28:47",  2,  -61,  1005,  0,  0,  -1,  -12,  -27,  -37
3295118, 1710336528, "2024/3/13 13:28:48",  1,  -55,  1003,  0,  0,  -1,  -11,  -26,  -35
3295318, 1710336528, "2024/3/13 13:28:48",  6,  -61,  1003,  0,  0,  -1,  -10,  -25,  -36
3295518, 1710336528, "2024/3/13 13:28:48",  5,  -61,  1000,  0,  0,  0,  -9,  -27,  -36
3295718, 1710336528, "2024/3/13 13:28:48",  1,  -60,  1000,  0,  0,  0,  -11,  -27,  -37
3295918, 1710336528, "2024/3/13 13:28:48",  6,  -61,  1004,  0,  0,  0,  -11,  -27,  -37
3296118, 1710336529, "2024/3/13 13:28:49",  -1,  -59,  999,  0,  -1,  -1,  -11,  -27,  -37
3296318, 1710336529, "2024/3/13 13:28:49",  2,  -56,  1002,  0,  0,  -1,  -13,  -26,  -36
3296518, 1710336529, "2024/3/13 13:28:49",  6,  -61,  1001,  0,  0,  -1,  -10,  -26,  -38
3296718, 1710336529, "2024/3/13 13:28:49",  5,  -59,  1002,  0,  0,  0,  -11,  -27,  -36
3296918, 1710336529, "2024/3/13 13:28:49",  2,  -58,  1002,  0,  0,  -1,  -11,  -27,  -38
3297118, 1710336530, "2024/3/13 13:28:50",  4,  -56,  1004,  0,  -1,  0,  -10,  -26,  -36
3297318, 1710336530, "2024/3/13 13:28:50",  4,  -56,  1003,  0,  0,  0,  -11,  -27,  -37
3297518, 1710336530, "2024/3/13 13:28:50",  3,  -59,  1004,  0,  -1,  -1,  -12,  -26,  -36
3297718, 1710336530, "2024/3/13 13:28:50",  1,  -55,  1002,  0,  0,  0,  -12,  -27,  -37
3297918, 1710336530, "2024/3/13 13:28:50",  7,  -58,  1003,  0,  0,  -1,  -11,  -26,  -36
3298118, 1710336531, "2024/3/13 13:28:51",  6,  -60,  1004,  0,  0,  0,  -11,  -26,  -36
3298318, 1710336531, "2024/3/13 13:28:51",  3,  -57,  1005,  0,  0,  0,  -12,  -27,  -37
3298518, 1710336531, "2024/3/13 13:28:51",  3,  -57,  1002,  0,  0,  -1,  -11,  -27,  -37
3298718, 1710336531, "2024/3/13 13:28:51",  4,  -59,  1003,  0,  -1,  0,  -11,  -27,  -35
3298918, 1710336531, "2024/3/13 13:28:51",  5,  -58,  1002,  0,  0,  0,  -10,  -27,  -37
3299118, 1710336532, "2024/3/13 13:28:52",  6,  -55,  1004,  0,  0,  -1,  -12,  -26,  -35
3299318, 1710336532, "2024/3/13 13:28:52",  4,  -59,  1004,  0,  0,  0,  -10,  -28,  -35
3299518, 1710336532, "2024/3/13 13:28:52",  4,  -60,  1000,  0,  0,  -1,  -9,  -27,  -37
3299718, 1710336532, "2024/3/13 13:28:52",  7,  -59,  1004,  0,  0,  -1,  -10,  -27,  -36
3299918, 1710336532, "2024/3/13 13:28:52",  3,  -59,  1007,  0,  0,  0,  -12,  -28,  -36
3300118, 1710336533, "2024/3/13 13:28:53",  5,  -58,  1004,  0,  0,  -1,  -10,  -28,  -36
3300318, 1710336533, "2024/3/13 13:28:53",  0,  -60,  1006,  0,  0,  -1,  -10,  -25,  -39
3300518, 1710336533, "2024/3/13 13:28:53",  4,  -57,  1004,  0,  0,  -1,  -9,  -27,  -36
3300718, 1710336533, "2024/3/13 13:28:53",  6,  -56,  1002,  0,  0,  -1,  -9,  -27,  -36
3300918, 1710336533, "2024/3/13 13:28:53",  3,  -54,  1003,  0,  0,  -1,  -10,  -26,  -36
3301118, 1710336534, "2024/3/13 13:28:54",  3,  -59,  1002,  0,  0,  -1,  -9,  -26,  -37
3301318, 1710336534, "2024/3/13 13:28:54",  8,  -62,  1005,  0,  -1,  -1,  -11,  -28,  -36
3301518, 1710336534, "2024/3/13 13:28:54",  0,  -59,  1005,  0,  0,  -1,  -11,  -26,  -36
3301718, 1710336534, "2024/3/13 13:28:54",  2,  -60,  1002,  0,  0,  -1,  -11,  -27,  -37
3301918, 1710336534, "2024/3/13 13:28:54",  2,  -61,  1004,  0,  0,  -1,  -11,  -26,  -38
3302118, 1710336535, "2024/3/13 13:28:55",  6,  -60,  1003,  0,  -1,  -1,  -10,  -26,  -37
3302318, 1710336535, "2024/3/13 13:28:55",  7,  -59,  1005,  0,  0,  0,  -11,  -26,  -37
3302518, 1710336535, "2024/3/13 13:28:55",  6,  -60,  1000,  0,  -1,  -1,  -11,  -27,  -35
3302718, 1710336535, "2024/3/13 13:28:55",  10,  -55,  1004,  0,  -1,  0,  -11,  -26,  -37
3302918, 1710336535, "2024/3/13 13:28:55",  5,  -54,  1004,  0,  0,  0,  -10,  -27,  -37
3303118, 1710336536, "2024/3/13 13:28:56",  1,  -58,  1007,  0,  -1,  -1,  -12,  -27,  -37
3303318, 1710336536, "2024/3/13 13:28:56",  6,  -59,  1005,  0,  0,  0,  -10,  -26,  -37
3303518, 1710336536, "2024/3/13 13:28:56",  8,  -56,  1003,  0,  0,  0,  -12,  -26,  -38
3303718, 1710336536, "2024/3/13 13:28:56",  4,  -60,  1004,  0,  0,  -1,  -11,  -27,  -37
3303918, 1710336536, "2024/3/13 13:28:56",  8,  -61,  1005,  0,  0,  -1,  -11,  -27,  -35
3304118, 1710336537, "2024/3/13 13:28:57",  5,  -58,  1004,  0,  0,  0,  -12,  -27,  -37
3304318, 1710336537, "2024/3/13 13:28:57",  4,  -61,  1004,  0,  -1,  -1,  -11,  -27,  -36
3304518, 1710336537, "2024/3/13 13:28:57",  5,  -58,  1001,  0,  0,  0,  -10,  -28,  -36
3304718, 1710336537, "2024/3/13 13:28:57",  9,  -55,  1008,  0,  0,  -1,  -12,  -28,  -37
3304918, 1710336537, "2024/3/13 13:28:57",  9,  -53,  1003,  0,  -1,  -1,  -12,  -26,  -38
3305118, 1710336538, "2024/3/13 13:28:58",  10,  -62,  1006,  0,  -1,  -1,  -10,  -28,  -37
3305318, 1710336538, "2024/3/13 13:28:58",  10,  -56,  1006,  0,  0,  -1,  -10,  -26,  -38
3305518, 1710336538, "2024/3/13 13:28:58",  11,  -57,  1002,  0,  0,  -1,  -11,  -28,  -36
3305718, 1710336538, "2024/3/13 13:28:58",  2,  -60,  1000,  0,  0,  -1,  -11,  -25,  -36
3305918, 1710336538, "2024/3/13 13:28:58",  6,  -61,  1005,  0,  0,  0,  -12,  -27,  -36
3306118, 1710336539, "2024/3/13 13:28:59",  4,  -58,  1003,  0,  -1,  -1,  -11,  -26,  -37
3306318, 1710336539, "2024/3/13 13:28:59",  8,  -61,  1000,  0,  -1,  -1,  -11,  -27,  -36
3306518, 1710336539, "2024/3/13 13:28:59",  8,  -62,  1009,  0,  0,  -1,  -10,  -25,  -36
3306718, 1710336539, "2024/3/13 13:28:59",  1,  -56,  1002,  0,  0,  -1,  -11,  -24,  -36
3306918, 1710336539, "2024/3/13 13:28:59",  9,  -64,  1007,  0,  0,  -1,  -9,  -27,  -36
3307118, 1710336540, "2024/3/13 13:29:0",  6,  -58,  1006,  0,  0,  -1,  -11,  -28,  -36
3307318, 1710336540, "2024/3/13 13:29:0",  6,  -57,  999,  0,  0,  0,  -11,  -25,  -36
3307518, 1710336540, "2024/3/13 13:29:0",  9,  -60,  1002,  0,  -1,  0,  -11,  -26,  -37
3307718, 1710336540, "2024/3/13 13:29:0",  9,  -60,  1010,  0,  0,  0,  -10,  -27,  -36
3307918, 1710336540, "2024/3/13 13:29:0",  5,  -53,  1000,  0,  0,  -1,  -10,  -26,  -36
3308118, 1710336541, "2024/3/13 13:29:1",  6,  -62,  1007,  0,  -1,  -1,  -10,  -26,  -36
3308318, 1710336541, "2024/3/13 13:29:1",  3,  -61,  1005,  0,  0,  -1,  -11,  -27,  -37
3308518, 1710336541, "2024/3/13 13:29:1",  4,  -62,  1008,  0,  0,  0,  -11,  -25,  -36
3308718, 1710336541, "2024/3/13 13:29:1",  5,  -58,  1004,  0,  0,  0,  -11,  -26,  -37
3308918, 1710336541, "2024/3/13 13:29:1",  7,  -59,  1001,  0,  0,  -1,  -10,  -27,  -36
3309118, 1710336542, "2024/3/13 13:29:2",  9,  -55,  1007,  0,  0,  -1,  -10,  -25,  -36
3309318, 1710336542, "2024/3/13 13:29:2",  15,  -64,  1001,  0,  0,  -1,  -10,  -27,  -38
3309518, 1710336542, "2024/3/13 13:29:2",  10,  -56,  1011,  0,  -1,  -1,  -10,  -27,  -36
3309718, 1710336542, "2024/3/13 13:29:2",  3,  -62,  1000,  0,  -1,  -1,  -9,  -25,  -36
3309918, 1710336542, "2024/3/13 13:29:2",  2,  -55,  1005,  0,  0,  0,  -10,  -27,  -36
3310118, 1710336543, "2024/3/13 13:29:3",  15,  -65,  998,  0,  0,  -1,  -11,  -27,  -36
3310318, 1710336543, "2024/3/13 13:29:3",  18,  -57,  1035,  0,  0,  -1,  -9,  -27,  -37
3310518, 1710336543, "2024/3/13 13:29:3",  16,  -61,  1008,  0,  -1,  -1,  -10,  -27,  -36
3310718, 1710336543, "2024/3/13 13:29:3",  17,  -66,  1004,  0,  0,  -1,  -10,  -27,  -35
3310918, 1710336543, "2024/3/13 13:29:3",  13,  -55,  996,  0,  -1,  -1,  -13,  -27,  -36
3311118, 1710336544, "2024/3/13 13:29:4",  6,  -57,  1003,  0,  0,  -1,  -11,  -25,  -36
3311318, 1710336544, "2024/3/13 13:29:4",  1,  -61,  1002,  0,  0,  0,  -11,  -26,  -37
3311518, 1710336544, "2024/3/13 13:29:4",  1,  -66,  1000,  0,  0,  -1,  -11,  -26,  -37
3311718, 1710336544, "2024/3/13 13:29:4",  8,  -57,  1007,  0,  0,  -1,  -12,  -26,  -35
3311918, 1710336544, "2024/3/13 13:29:4",  -2,  -58,  997,  0,  -1,  -1,  -12,  -27,  -38
3312118, 1710336545, "2024/3/13 13:29:5",  8,  -59,  1004,  0,  0,  0,  -10,  -28,  -36
3312318, 1710336545, "2024/3/13 13:29:5",  -4,  -57,  1000,  0,  0,  -1,  -11,  -26,  -37
3312518, 1710336545, "2024/3/13 13:29:5",  15,  -50,  1009,  0,  0,  -1,  -10,  -26,  -38
3312718, 1710336545, "2024/3/13 13:29:5",  9,  -59,  1000,  0,  0,  -1,  -11,  -26,  -37
3312918, 1710336545, "2024/3/13 13:29:5",  11,  -61,  1001,  0,  0,  -1,  -11,  -27,  -36
3313118, 1710336546, "2024/3/13 13:29:6",  11,  -61,  1003,  0,  -1,  -1,  -11,  -26,  -37
3313318, 1710336546, "2024/3/13 13:29:6",  4,  -60,  1001,  0,  0,  -1,  -11,  -27,  -37
3313518, 1710336546, "2024/3/13 13:29:6",  5,  -62,  1003,  0,  0,  -1,  -11,  -27,  -35
3313718, 1710336546, "2024/3/13 13:29:6",  4,  -60,  999,  0,  0,  0,  -11,  -26,  -38
3313918, 1710336546, "2024/3/13 13:29:6",  2,  -56,  1003,  0,  0,  -1,  -12,  -26,  -38
3314118, 1710336547, "2024/3/13 13:29:7",  10,  -57,  1002,  0,  0,  -1,  -11,  -27,  -38
3314318, 1710336547, "2024/3/13 13:29:7",  7,  -59,  1000,  0,  -1,  -1,  -11,  -27,  -36
3314518, 1710336547, "2024/3/13 13:29:7",  8,  -58,  1003,  0,  -1,  -1,  -10,  -25,  -36
3314718, 1710336547, "2024/3/13 13:29:7",  8,  -61,  1006,  0,  0,  -1,  -11,  -27,  -36
3314918, 1710336547, "2024/3/13 13:29:7",  8,  -56,  1004,  0,  0,  -1,  -11,  -28,  -36
3315118, 1710336548, "2024/3/13 13:29:8",  2,  -57,  1004,  0,  0,  -1,  -9,  -27,  -37
3315318, 1710336548, "2024/3/13 13:29:8",  0,  -53,  998,  0,  0,  0,  -11,  -27,  -36
3315518, 1710336548, "2024/3/13 13:29:8",  3,  -61,  1002,  0,  0,  -1,  -11,  -27,  -36
3315718, 1710336548, "2024/3/13 13:29:8",  4,  -60,  1003,  0,  0,  -1,  -10,  -27,  -37
3315918, 1710336548, "2024/3/13 13:29:8",  0,  -62,  1003,  0,  0,  -1,  -10,  -24,  -37
3316118, 1710336549, "2024/3/13 13:29:9",  0,  -66,  1000,  0,  0,  -1,  -11,  -27,  -37
3316318, 1710336549, "2024/3/13 13:29:9",  6,  -58,  1005,  0,  -1,  0,  -11,  -26,  -37
3316518, 1710336549, "2024/3/13 13:29:9",  8,  -62,  1001,  0,  0,  -1,  -12,  -27,  -36
3316718, 1710336549, "2024/3/13 13:29:9",  10,  -57,  1000,  0,  0,  -1,  -11,  -26,  -37
3316918, 1710336549, "2024/3/13 13:29:9",  6,  -59,  1005,  0,  0,  -1,  -11,  -26,  -37
3317118, 1710336550, "2024/3/13 13:29:10",  2,  -59,  1004,  0,  0,  0,  -11,  -27,  -37
3317318, 1710336550, "2024/3/13 13:29:10",  6,  -58,  1000,  0,  0,  -1,  -11,  -27,  -38
3317518, 1710336550, "2024/3/13 13:29:10",  3,  -62,  1000,  0,  0,  -1,  -9,  -26,  -36
3317718, 1710336550, "2024/3/13 13:29:10",  4,  -60,  1006,  0,  0,  0,  -10,  -25,  -36
3317918, 1710336550, "2024/3/13 13:29:10",  6,  -65,  1005,  0,  0,  0,  -10,  -27,  -37
3318118, 1710336551, "2024/3/13 13:29:11",  3,  -59,  1002,  0,  0,  -1,  -9,  -25,  -35
3318318, 1710336551, "2024/3/13 13:29:11",  5,  -59,  1005,  0,  0,  0,  -10,  -27,  -38
3318518, 1710336551, "2024/3/13 13:29:11",  6,  -61,  1007,  0,  0,  -1,  -11,  -28,  -36
3318718, 1710336551, "2024/3/13 13:29:11",  5,  -59,  1000,  0,  0,  -1,  -10,  -26,  -37
3318918, 1710336551, "2024/3/13 13:29:11",  10,  -58,  1004,  0,  0,  0,  -12,  -26,  -36
3319118, 1710336552, "2024/3/13 13:29:12",  8,  -61,  1002,  0,  0,  -1,  -11,  -27,  -39
3319318, 1710336552, "2024/3/13 13:29:12",  7,  -64,  1003,  0,  0,  0,  -10,  -27,  -38
3319518, 1710336552, "2024/3/13 13:29:12",  10,  -54,  1002,  0,  -1,  0,  -11,  -28,  -35
3319718, 1710336552, "2024/3/13 13:29:12",  4,  -58,  1007,  0,  0,  0,  -11,  -27,  -36
3319918, 1710336552, "2024/3/13 13:29:12",  8,  -58,  1001,  0,  0,  0,  -11,  -27,  -35
3320118, 1710336553, "2024/3/13 13:29:13",  15,  -61,  1003,  0,  0,  0,  -9,  -26,  -35
3320318, 1710336553, "2024/3/13 13:29:13",  7,  -58,  1006,  0,  -1,  -1,  -12,  -28,  -36
3320518, 1710336553, "2024/3/13 13:29:13",  7,  -61,  1003,  0,  0,  0,  -11,  -25,  -37
3320718, 1710336553, "2024/3/13 13:29:13",  7,  -56,  1001,  0,  0,  -1,  -10,  -26,  -37
3320918, 1710336553, "2024/3/13 13:29:13",  2,  -54,  1004,  0,  0,  0,  -9,  -27,  -36
3321118, 1710336554, "2024/3/13 13:29:14",  10,  -56,  1002,  0,  0,  -1,  -9,  -27,  -37
3321318, 1710336554, "2024/3/13 13:29:14",  11,  -55,  1008,  0,  0,  -1,  -10,  -26,  -35
3321518, 1710336554, "2024/3/13 13:29:14",  5,  -62,  1001,  0,  0,  -1,  -10,  -26,  -37
3321718, 1710336554, "2024/3/13 13:29:14",  6,  -63,  1004,  0,  0,  0,  -11,  -26,  -36
3321918, 1710336554, "2024/3/13 13:29:14",  3,  -56,  1004,  0,  0,  -1,  -10,  -26,  -35
3322118, 1710336555, "2024/3/13 13:29:15",  6,  -60,  1003,  0,  0,  0,  -11,  -27,  -35
3322318, 1710336555, "2024/3/13 13:29:15",  7,  -61,  1002,  0,  0,  0,  -11,  -27,  -37
3322518, 1710336555, "2024/3/13 13:29:15",  4,  -60,  1005,  0,  0,  -1,  -11,  -26,  -37
3322718, 1710336555, "2024/3/13 13:29:15",  3,  -57,  1004,  0,  0,  -1,  -10,  -25,  -37
3322918, 1710336555, "2024/3/13 13:29:15",  5,  3,  1004,  0,  -1,  -1,  -12,  -24,  -37
3323118, 1710336556, "2024/3/13 13:29:16",  7,  -63,  1006,  0,  0,  -1,  -12,  -29,  -37
3323318, 1710336556, "2024/3/13 13:29:16",  4,  -55,  1000,  0,  0,  0,  -10,  -28,  -36
3323518, 1710336556, "2024/3/13 13:29:16",  6,  -57,  1001,  0,  0,  0,  -11,  -26,  -37
3323718, 1710336556, "2024/3/13 13:29:16",  4,  -55,  1005,  0,  0,  -1,  -11,  -26,  -37
3323918, 1710336556, "2024/3/13 13:29:16",  6,  -55,  1005,  0,  0,  0,  -11,  -28,  -37
3324118, 1710336557, "2024/3/13 13:29:17",  7,  -64,  1004,  0,  0,  -1,  -10,  -26,  -37
3324318, 1710336557, "2024/3/13 13:29:17",  7,  -61,  1001,  0,  0,  -1,  -12,  -26,  -36
3324518, 1710336557, "2024/3/13 13:29:17",  6,  -64,  1005,  0,  0,  0,  -11,  -27,  -36
3324718, 1710336557, "2024/3/13 13:29:17",  5,  -58,  1003,  0,  -1,  -1,  -11,  -27,  -37
3324918, 1710336557, "2024/3/13 13:29:17",  12,  -66,  1002,  0,  0,  -1,  -11,  -27,  -37
3325118, 1710336558, "2024/3/13 13:29:18",  9,  -62,  1003,  0,  0,  -1,  -10,  -27,  -37
