millis,stamp,datetime,accX,accY,accZ,gyroX,gyroY,gyroZ,compX,compY,compZ
3695734, 1710336928, "2024/3/13 13:35:28",  8,  -57,  1002,  0,  0,  0,  -12,  -27,  -37
3695934, 1710336929, "2024/3/13 13:35:29",  4,  -57,  1004,  0,  0,  0,  -11,  -28,  -36
3696134, 1710336929, "2024/3/13 13:35:29",  4,  -62,  1004,  0,  0,  0,  -9,  -26,  -36
3696334, 1710336929, "2024/3/13 13:35:29",  9,  -59,  1006,  0,  -1,  -1,  -11,  -26,  -36
3696534, 1710336929, "2024/3/13 13:35:29",  0,  -61,  1001,  0,  -1,  -1,  -10,  -26,  -37
3696734, 1710336929, "2024/3/13 13:35:29",  1,  -62,  1002,  0,  0,  -1,  -11,  -26,  -36
3696934, 1710336930, "2024/3/13 13:35:30",  5,  -55,  1002,  0,  0,  -1,  -10,  -27,  -37
3697134, 1710336930, "2024/3/13 13:35:30",  5,  -61,  1004,  0,  0,  0,  -10,  -26,  -36
3697334, 1710336930, "2024/3/13 13:35:30",  0,  -58,  1006,  0,  0,  0,  -12,  -26,  -37
3697534, 1710336930, "2024/3/13 13:35:30",  3,  -61,  999,  0,  0,  -1,  -10,  -26,  -36
3697734, 1710336930, "2024/3/13 13:35:30",  5,  -57,  1005,  0,  0,  -1,  -10,  -26,  -37
3697934, 1710336931, "2024/3/13 13:35:31",  6,  -56,  1003,  0,  -1,  0,  -9,  -27,  -36
3698134, 1710336931, "2024/3/13 13:35:31",  6,  -61,  1003,  0,  0,  -1,  -11,  -27,  -37
3698334, 1710336931, "2024/3/13 13:35:31",  3,  -56,  1005,  0,  0,  0,  -11,  -26,  -37
3698534, 1710336931, "2024/3/13 13:35:31",  8,  -57,  1002,  0,  -1,  -1,  -12,  -27,  -35
3698734, 1710336931, "2024/3/13 13:35:31",  1,  -59,  1000,  0,  0,  0,  -9,  -26,  -36
3698934, 1710336932, "2024/3/13 13:35:32",  6,  -52,  1006,  0,  0,  -1,  -11,  -26,  -36
3699134, 1710336932, "2024/3/13 13:35:32",  0,  -61,  1002,  0,  0,  0,  -11,  -25,  -34
3699334, 1710336932, "2024/3/13 13:35:32",  1,  -56,  1002,  0,  0,  -1,  -10,  -26,  -36
3699534, 1710336932, "2024/3/13 13:35:32",  -1,  -50,  1015,  0,  0,  -1,  -10,  -27,  -35
3699734, 1710336932, "2024/3/13 13:35:32",  1,  -63,  1001,  0,  0,  0,  -8,  -26,  -37
3699934, 1710336933, "2024/3/13 13:35:33",  1,  -65,  1004,  0,  0,  0,  -11,  -25,  -35
3700134, 1710336933, "2024/3/13 13:35:33",  -1,  -55,  1000,  0,  0,  -1,  -10,  -26,  -37
3700334, 1710336933, "2024/3/13 13:35:33",  5,  -56,  1005,  0,  0,  -1,  -10,  -28,  -36
3700534, 1710336933, "2024/3/13 13:35:33",  5,  -52,  1003,  0,  0,  -1,  -9,  -25,  -36
3700734, 1710336933, "2024/3/13 13:35:33",  8,  -61,  1006,  0,  0,  0,  -10,  -26,  -37
3700934, 1710336934, "2024/3/13 13:35:34",  11,  -60,  1003,  0,  0,  -1,  -11,  -25,  -35
3701134, 1710336934, "2024/3/13 13:35:34",  3,  -57,  1004,  0,  0,  -1,  -12,  -26,  -36
3701334, 1710336934, "2024/3/13 13:35:34",  8,  -62,  1005,  0,  0,  0,  -10,  -26,  -36
3701534, 1710336934, "2024/3/13 13:35:34",  4,  -59,  1000,  0,  -1,  0,  -11,  -27,  -37
3701734, 1710336934, "2024/3/13 13:35:34",  8,  -55,  1004,  0,  0,  0,  -11,  -27,  -36
3701934, 1710336935, "2024/3/13 13:35:35",  9,  -61,  999,  0,  0,  0,  -12,  -27,  -35
3702134, 1710336935, "2024/3/13 13:35:35",  7,  -57,  1007,  0,  0,  -1,  -9,  -26,  -37
3702334, 1710336935, "2024/3/13 13:35:35",  12,  -36,  1020,  0,  0,  -1,  -11,  -28,  -36
3702534, 1710336935, "2024/3/13 13:35:35",  0,  -51,  988,  0,  -1,  -1,  -10,  -27,  -38
3702734, 1710336935, "2024/3/13 13:35:35",  -1,  -56,  1003,  0,  0,  -1,  -10,  -27,  -36
3702934, 1710336936, "2024/3/13 13:35:36",  4,  -59,  1002,  0,  0,  -1,  -11,  -26,  -36
3703134, 1710336936, "2024/3/13 13:35:36",  -1,  -62,  1006,  0,  0,  -1,  -11,  -26,  -36
3703334, 1710336936, "2024/3/13 13:35:36",  7,  -63,  1002,  0,  0,  -1,  -11,  -26,  -36
3703534, 1710336936, "2024/3/13 13:35:36",  3,  -61,  1008,  0,  0,  0,  -11,  -26,  -37
3703734, 1710336936, "2024/3/13 13:35:36",  7,  -61,  1003,  0,  0,  -1,  -9,  -27,  -36
3703934, 1710336937, "2024/3/13 13:35:37",  5,  -54,  1003,  0,  0,  -1,  -9,  -25,  -35
3704134, 1710336937, "2024/3/13 13:35:37",  7,  -57,  1004,  0,  0,  0,  -11,  -25,  -38
3704334, 1710336937, "2024/3/13 13:35:37",  5,  -65,  1002,  0,  0,  -1,  -11,  -27,  -36
3704534, 1710336937, "2024/3/13 13:35:37",  4,  -59,  1003,  0,  0,  0,  -10,  -28,  -36
3704734, 1710336937, "2024/3/13 13:35:37",  3,  -59,  1000,  0,  0,  0,  -11,  -28,  -36
3704934, 1710336938, "2024/3/13 13:35:38",  2,  -54,  1002,  0,  0,  -1,  -10,  -28,  -36
3705134, 1710336938, "2024/3/13 13:35:38",  3,  -57,  1001,  0,  0,  0,  -10,  -26,  -36
3705334, 1710336938, "2024/3/13 13:35:38",  5,  -64,  1005,  0,  0,  -1,  -11,  -26,  -37
3705534, 1710336938, "2024/3/13 13:35:38",  6,  -53,  1001,  0,  0,  -1,  -11,  -27,  -37
3705734, 1710336938, "2024/3/13 13:35:38",  9,  -53,  999,  0,  -1,  0,  -11,  -27,  -37
3705934, 1710336939, "2024/3/13 13:35:39",  7,  -59,  1007,  0,  0,  -1,  -11,  -26,  -35
3706134, 1710336939, "2024/3/13 13:35:39",  5,  -60,  1006,  0,  -1,  -1,  -12,  -27,  -37
3706334, 1710336939, "2024/3/13 13:35:39",  7,  -59,  1005,  0,  0,  -1,  -12,  -28,  -36
3706534, 1710336939, "2024/3/13 13:35:39",  5,  -56,  1005,  0,  0,  -1,  -10,  -26,  -36
3706734, 1710336939, "2024/3/13 13:35:39",  5,  -54,  1003,  0,  -1,  -1,  -10,  -27,  -36
3706934, 1710336940, "2024/3/13 13:35:40",  -7,  -69,  987,  0,  -1,  -1,  -11,  -27,  -35
3707134, 1710336940, "2024/3/13 13:35:40",  3,  -60,  1004,  0,  0,  0,  -9,  -27,  -36
3707334, 1710336940, "2024/3/13 13:35:40",  0,  -63,  1005,  0,  0,  -1,  -9,  -27,  -37
3707534, 1710336940, "2024/3/13 13:35:40",  0,  -51,  1001,  0,  -1,  0,  -11,  -26,  -38
3707734, 1710336940, "2024/3/13 13:35:40",  3,  -59,  1004,  0,  0,  -1,  -12,  -27,  -36
3707934, 1710336941, "2024/3/13 13:35:41",  5,  -57,  1003,  0,  0,  -1,  -11,  -26,  -37
3708134, 1710336941, "2024/3/13 13:35:41",  3,  -62,  1002,  0,  0,  0,  -10,  -24,  -37
3708334, 1710336941, "2024/3/13 13:35:41",  5,  -62,  1006,  0,  -1,  0,  -9,  -27,  -37
3708534, 1710336941, "2024/3/13 13:35:41",  6,  -62,  1003,  0,  -1,  0,  -11,  -27,  -37
3708734, 1710336941, "2024/3/13 13:35:41",  7,  -57,  1000,  0,  0,  -1,  -10,  -27,  -35
3708934, 1710336942, "2024/3/13 13:35:42",  6,  -58,  1004,  0,  0,  -1,  -10,  -25,  -36
3709134, 1710336942, "2024/3/13 13:35:42",  14,  -57,  1013,  0,  0,  -1,  -9,  -26,  -36
3709334, 1710336942, "2024/3/13 13:35:42",  8,  -60,  1003,  0,  0,  0,  -13,  -27,  -36
3709534, 1710336942, "2024/3/13 13:35:42",  6,  -54,  1003,  0,  0,  0,  -10,  -27,  -34
3709734, 1710336942, "2024/3/13 13:35:42",  3,  -55,  1006,  0,  0,  0,  -10,  -26,  -36
3709934, 1710336943, "2024/3/13 13:35:43",  5,  -54,  1003,  0,  0,  -1,  -10,  -27,  -37
3710134, 1710336943, "2024/3/13 13:35:43",  5,  -51,  1010,  0,  0,  0,  -11,  -25,  -37
3710334, 1710336943, "2024/3/13 13:35:43",  6,  -58,  1006,  0,  0,  0,  -10,  -27,  -39
3710534, 1710336943, "2024/3/13 13:35:43",  7,  -68,  1006,  0,  0,  -1,  -10,  -26,  -37
3710734, 1710336943, "2024/3/13 13:35:43",  5,  -59,  1000,  0,  0,  0,  -12,  -26,  -37
3710934, 1710336944, "2024/3/13 13:35:44",  6,  -53,  1005,  0,  -1,  -1,  -12,  -27,  -36
3711134, 1710336944, "2024/3/13 13:35:44",  16,  -66,  1002,  0,  0,  -1,  -11,  -26,  -34
3711334, 1710336944, "2024/3/13 13:35:44",  11,  -59,  1005,  0,  0,  -1,  -10,  -27,  -36
3711534, 1710336944, "2024/3/13 13:35:44",  1,  -61,  1006,  0,  0,  -1,  -12,  -25,  -35
3711734, 1710336944, "2024/3/13 13:35:44",  1,  -64,  995,  0,  0,  -1,  -10,  -27,  -38
3711934, 1710336945, "2024/3/13 13:35:45",  11,  -57,  1003,  0,  0,  0,  -10,  -26,  -37
3712134, 1710336945, "2024/3/13 13:35:45",  8,  -61,  1005,  0,  0,  0,  -12,  -27,  -36
3712334, 1710336945, "2024/3/13 13:35:45",  7,  -56,  1003,  0,  0,  0,  -12,  -28,  -36
3712534, 1710336945, "2024/3/13 13:35:45",  -1,  -55,  1001,  0,  0,  -1,  -10,  -27,  -38
3712734, 1710336945, "2024/3/13 13:35:45",  3,  -52,  1002,  0,  0,  -1,  -10,  -26,  -37
3712934, 1710336946, "2024/3/13 13:35:46",  6,  -58,  1004,  0,  0,  -1,  -11,  -27,  -36
3713134, 1710336946, "2024/3/13 13:35:46",  0,  -58,  1006,  0,  -1,  -1,  -11,  -26,  -36
3713334, 1710336946, "2024/3/13 13:35:46",  3,  -57,  1004,  0,  0,  0,  -11,  -25,  -36
3713534, 1710336946, "2024/3/13 13:35:46",  5,  -59,  1008,  0,  0,  -1,  -10,  -26,  -37
3713734, 1710336946, "2024/3/13 13:35:46",  0,  -59,  1000,  0,  0,  -1,  -9,  -27,  -36
3713934, 1710336947, "2024/3/13 13:35:47",  3,  -61,  1001,  0,  0,  -1,  -9,  -28,  -36
3714134, 1710336947, "2024/3/13 13:35:47",  5,  -62,  1004,  0,  0,  0,  -10,  -28,  -37
3714334, 1710336947, "2024/3/13 13:35:47",  7,  -58,  1004,  0,  0,  -1,  -11,  -27,  -38
3714534, 1710336947, "2024/3/13 13:35:47",  10,  -57,  1003,  0,  0,  -1,  -11,  -28,  -37
3714734, 1710336947, "2024/3/13 13:35:47",  7,  -64,  1004,  0,  0,  -1,  -9,  -26,  -37
3714934, 1710336948, "2024/3/13 13:35:48",  6,  -61,  1007,  0,  0,  -1,  -11,  -25,  -36
3715134, 1710336948, "2024/3/13 13:35:48",  8,  -58,  1003,  0,  0,  0,  -11,  -27,  -36
3715334, 1710336948, "2024/3/13 13:35:48",  8,  -61,  1000,  0,  0,  -1,  -10,  -26,  -36
3715534, 1710336948, "2024/3/13 13:35:48",  5,  -55,  1002,  0,  0,  0,  -11,  -27,  -37
3715734, 1710336948, "2024/3/13 13:35:48",  7,  -59,  1002,  0,  0,  0,  -11,  -28,  -36
3715934, 1710336949, "2024/3/13 13:35:49",  5,  -61,  1002,  0,  0,  -1,  -10,  -27,  -37
3716134, 1710336949, "2024/3/13 13:35:49",  8,  -62,  1003,  0,  0,  -1,  -10,  -27,  -38
3716334, 1710336949, "2024/3/13 13:35:49",  4,  -63,  1006,  0,  0,  -1,  -11,  -25,  -36
3716534, 1710336949, "2024/3/13 13:35:49",  3,  -54,  1001,  0,  0,  -1,  -10,  -27,  -37
3716734, 1710336949, "2024/3/13 13:35:49",  7,  -55,  1001,  0,  0,  0,  -11,  -27,  -36
3716934, 1710336950, "2024/3/13 13:35:50",  4,  -59,  1003,  0,  0,  -1,  -11,  -26,  -36
3717134, 1710336950, "2024/3/13 13:35:50",  6,  -61,  1002,  0,  0,  0,  -10,  -28,  -37
3717334, 1710336950, "2024/3/13 13:35:50",  5,  -60,  1002,  0,  -1,  -1,  -10,  -26,  -35
3717534, 1710336950, "2024/3/13 13:35:50",  4,  -59,  1005,  0,  0,  0,  -10,  -24,  -35
3717734, 1710336950, "2024/3/13 13:35:50",  6,  -57,  1004,  0,  0,  0,  -10,  -27,  -36
3717934, 1710336951, "2024/3/13 13:35:51",  5,  -58,  1002,  0,  0,  -1,  -12,  -25,  -37
3718134, 1710336951, "2024/3/13 13:35:51",  7,  -58,  1005,  0,  0,  -1,  -9,  -27,  -36
3718334, 1710336951, "2024/3/13 13:35:51",  2,  -59,  1002,  0,  0,  0,  -12,  -28,  -36
3718534, 1710336951, "2024/3/13 13:35:51",  6,  -55,  998,  0,  0,  -1,  -9,  -27,  -36
3718734, 1710336951, "2024/3/13 13:35:51",  3,  -59,  1003,  0,  0,  0,  -10,  -28,  -38
3718934, 1710336952, "2024/3/13 13:35:52",  6,  -56,  1004,  0,  -1,  0,  -12,  -27,  -36
3719134, 1710336952, "2024/3/13 13:35:52",  10,  -57,  1000,  0,  0,  -1,  -10,  -27,  -36
3719334, 1710336952, "2024/3/13 13:35:52",  3,  -59,  1004,  0,  -1,  -1,  -10,  -27,  -37
3719534, 1710336952, "2024/3/13 13:35:52",  9,  -60,  1004,  0,  0,  0,  -11,  -28,  -36
3719734, 1710336952, "2024/3/13 13:35:52",  9,  -55,  1002,  0,  0,  -1,  -11,  -27,  -36
3719934, 1710336953, "2024/3/13 13:35:53",  7,  -58,  1002,  0,  0,  0,  -11,  -26,  -37
3720134, 1710336953, "2024/3/13 13:35:53",  8,  -51,  1005,  0,  0,  -1,  -10,  -26,  -36
3720334, 1710336953, "2024/3/13 13:35:53",  9,  -60,  1004,  0,  0,  -1,  -9,  -27,  -36
3720534, 1710336953, "2024/3/13 13:35:53",  8,  -54,  1007,  0,  0,  0,  -11,  -26,  -36
3720734, 1710336953, "2024/3/13 13:35:53",  12,  -58,  1004,  0,  0,  -1,  -11,  -26,  -37
3720934, 1710336954, "2024/3/13 13:35:54",  11,  -64,  1007,  0,  0,  -1,  -10,  -26,  -36
3721134, 1710336954, "2024/3/13 13:35:54",  7,  -63,  1001,  0,  0,  -1,  -9,  -28,  -36
3721334, 1710336954, "2024/3/13 13:35:54",  7,  -55,  999,  0,  0,  0,  -9,  -25,  -37
3721534, 1710336954, "2024/3/13 13:35:54",  2,  -63,  1000,  0,  0,  0,  -11,  -27,  -38
3721734, 1710336954, "2024/3/13 13:35:54",  5,  -58,  1000,  0,  0,  -1,  -12,  -27,  -37
3721934, 1710336955, "2024/3/13 13:35:55",  8,  -56,  1003,  0,  0,  0,  -11,  -27,  -36
3722134, 1710336955, "2024/3/13 13:35:55",  2,  -59,  1003,  0,  0,  -1,  -11,  -28,  -37
3722334, 1710336955, "2024/3/13 13:35:55",  4,  -63,  1007,  0,  0,  0,  -10,  -26,  -36
3722534, 1710336955, "2024/3/13 13:35:55",  9,  -53,  1004,  0,  0,  -1,  -10,  -29,  -37
3722734, 1710336955, "2024/3/13 13:35:55",  12,  -58,  1006,  0,  -1,  0,  -12,  -26,  -36
3722934, 1710336956, "2024/3/13 13:35:56",  9,  -61,  1006,  0,  0,  0,  -11,  -26,  -35
3723134, 1710336956, "2024/3/13 13:35:56",  2,  -61,  1003,  0,  0,  -1,  -11,  -28,  -36
3723334, 1710336956, "2024/3/13 13:35:56",  0,  -62,  998,  0,  -1,  -1,  -9,  -27,  -36
3723534, 1710336956, "2024/3/13 13:35:56",  -2,  -54,  1003,  0,  -1,  -1,  -11,  -27,  -36
3723734, 1710336956, "2024/3/13 13:35:56",  4,  -57,  1001,  0,  0,  -1,  -11,  -27,  -34
3723934, 1710336957, "2024/3/13 13:35:57",  0,  -65,  997,  0,  -1,  -1,  -10,  -26,  -37
3724134, 1710336957, "2024/3/13 13:35:57",  4,  -56,  1001,  0,  0,  -1,  -11,  -27,  -37
3724334, 1710336957, "2024/3/13 13:35:57",  5,  -57,  1001,  0,  0,  -1,  -11,  -26,  -35
3724534, 1710336957, "2024/3/13 13:35:57",  7,  -61,  1002,  0,  0,  0,  -10,  -28,  -37
3724734, 1710336957, "2024/3/13 13:35:57",  5,  -63,  1002,  0,  0,  0,  -12,  -26,  -36
3724934, 1710336958, "2024/3/13 13:35:58",  13,  -63,  1002,  0,  0,  -1,  -9,  -26,  -36
3725134, 1710336958, "2024/3/13 13:35:58",  9,  -60,  1005,  0,  0,  0,  -9,  -25,  -35
3725334, 1710336958, "2024/3/13 13:35:58",  6,  -60,  1004,  0,  0,  0,  -11,  -26,  -35
3725534, 1710336958, "2024/3/13 13:35:58",  4,  -66,  999,  0,  -1,  -1,  -10,  -28,  -37
3725734, 1710336958, "2024/3/13 13:35:58",  -4,  -55,  1000,  0,  0,  0,  -11,  -27,  -36
3725934, 1710336959, "2024/3/13 13:35:59",  -2,  -70,  1002,  0,  -1,  0,  -11,  -27,  -37
3726134, 1710336959, "2024/3/13 13:35:59",  2,  -64,  1002,  0,  0,  -1,  -9,  -27,  -36
3726334, 1710336959, "2024/3/13 13:35:59",  5,  -60,  1002,  0,  0,  -1,  -11,  -25,  -37
3726534, 1710336959, "2024/3/13 13:35:59",  5,  -57,  1005,  0,  0,  -1,  -9,  -27,  -36
3726734, 1710336959, "2024/3/13 13:35:59",  9,  -56,  1006,  0,  0,  0,  -9,  -25,  -36
3726934, 1710336960, "2024/3/13 13:36:0",  8,  -59,  998,  0,  0,  -1,  -9,  -28,  -36
3727134, 1710336960, "2024/3/13 13:36:0",  9,  -54,  1000,  0,  0,  0,  -10,  -25,  -37
3727334, 1710336960, "2024/3/13 13:36:0",  5,  -56,  1002,  0,  0,  -1,  -9,  -27,  -35
3727534, 1710336960, "2024/3/13 13:36:0",  6,  -58,  1002,  0,  0,  -1,  -12,  -26,  -37
3727734, 1710336960, "2024/3/13 13:36:0",  4,  -60,  1006,  0,  0,  -1,  -11,  -25,  -37
3727934, 1710336961, "2024/3/13 13:36:1",  9,  -63,  1005,  0,  0,  0,  -11,  -27,  -37
3728134, 1710336961, "2024/3/13 13:36:1",  8,  -63,  1005,  0,  0,  -1,  -9,  -27,  -37
3728334, 1710336961, "2024/3/13 13:36:1",  4,  -62,  1004,  0,  0,  0,  -11,  -26,  -36
3728534, 1710336961, "2024/3/13 13:36:1",  8,  -62,  1001,  0,  0,  -1,  -10,  -27,  -37
3728734, 1710336961, "2024/3/13 13:36:1",  0,  -60,  1003,  0,  0,  -1,  -10,  -26,  -37
3728934, 1710336962, "2024/3/13 13:36:2",  2,  -60,  1004,  0,  0,  -1,  -9,  -27,  -36
3729134, 1710336962, "2024/3/13 13:36:2",  6,  -56,  1004,  0,  0,  -1,  -10,  -26,  -36
3729334, 1710336962, "2024/3/13 13:36:2",  3,  -63,  1002,  0,  0,  0,  -10,  -26,  -37
3729534, 1710336962, "2024/3/13 13:36:2",  1,  -58,  1002,  0,  0,  -1,  -11,  -26,  -37
3729734, 1710336962, "2024/3/13 13:36:2",  5,  -67,  1004,  0,  -1,  -1,  -11,  -26,  -37
3729934, 1710336963, "2024/3/13 13:36:3",  10,  -61,  1007,  0,  -1,  -1,  -11,  -28,  -37
3730134, 1710336963, "2024/3/13 13:36:3",  3,  -56,  1002,  0,  0,  -1,  -9,  -27,  -36
3730334, 1710336963, "2024/3/13 13:36:3",  6,  -58,  1004,  0,  0,  -1,  -12,  -28,  -36
3730534, 1710336963, "2024/3/13 13:36:3",  -1,  -53,  1001,  0,  0,  0,  -11,  -25,  -37
3730734, 1710336963, "2024/3/13 13:36:3",  0,  -55,  1006,  0,  0,  -1,  -11,  -25,  -37
3730934, 1710336964, "2024/3/13 13:36:4",  6,  -59,  1004,  0,  0,  0,  -10,  -28,  -37
3731134, 1710336964, "2024/3/13 13:36:4",  10,  -58,  1003,  0,  0,  0,  -10,  -26,  -36
3731334, 1710336964, "2024/3/13 13:36:4",  4,  -57,  1005,  0,  0,  -1,  -10,  -27,  -37
3731534, 1710336964, "2024/3/13 13:36:4",  13,  -66,  1004,  0,  0,  0,  -9,  -27,  -36
3731734, 1710336964, "2024/3/13 13:36:4",  17,  -60,  1003,  0,  -1,  -1,  -12,  -27,  -36
3731934, 1710336965, "2024/3/13 13:36:5",  10,  -58,  1001,  0,  0,  -1,  -10,  -26,  -36
3732134, 1710336965, "2024/3/13 13:36:5",  4,  -60,  999,  0,  0,  -1,  -10,  -27,  -37
3732334, 1710336965, "2024/3/13 13:36:5",  10,  -56,  1003,  0,  0,  -1,  -10,  -27,  -36
3732534, 1710336965, "2024/3/13 13:36:5",  0,  -53,  1000,  0,  -1,  -1,  -10,  -28,  -35
3732734, 1710336965, "2024/3/13 13:36:5",  0,  -38,  1002,  0,  -1,  -1,  -11,  -26,  -36
3732934, 1710336966, "2024/3/13 13:36:6",  3,  -59,  1002,  0,  0,  -1,  -13,  -27,  -37
3733134, 1710336966, "2024/3/13 13:36:6",  4,  -70,  1005,  0,  0,  0,  -11,  -27,  -37
3733334, 1710336966, "2024/3/13 13:36:6",  3,  -62,  1003,  0,  -1,  -1,  -11,  -26,  -37
3733534, 1710336966, "2024/3/13 13:36:6",  6,  -62,  1005,  0,  0,  -1,  -9,  -29,  -36
3733734, 1710336966, "2024/3/13 13:36:6",  8,  -60,  1003,  0,  0,  -1,  -10,  -27,  -38
3733934, 1710336967, "2024/3/13 13:36:7",  0,  -54,  1003,  0,  0,  0,  -10,  -27,  -36
3734134, 1710336967, "2024/3/13 13:36:7",  6,  -60,  1004,  0,  0,  -1,  -11,  -26,  -36
3734334, 1710336967, "2024/3/13 13:36:7",  2,  -60,  1001,  0,  0,  -1,  -10,  -26,  -37
3734534, 1710336967, "2024/3/13 13:36:7",  5,  -63,  1001,  0,  0,  0,  -11,  -28,  -36
3734734, 1710336967, "2024/3/13 13:36:7",  7,  -60,  1001,  0,  0,  0,  -10,  -26,  -36
3734934, 1710336968, "2024/3/13 13:36:8",  5,  -63,  1008,  0,  0,  0,  -10,  -27,  -37
3735134, 1710336968, "2024/3/13 13:36:8",  7,  -60,  1002,  0,  0,  0,  -12,  -27,  -36
3735334, 1710336968, "2024/3/13 13:36:8",  7,  -58,  1002,  0,  0,  -1,  -11,  -26,  -36
3735534, 1710336968, "2024/3/13 13:36:8",  5,  -62,  1001,  0,  0,  -1,  -10,  -25,  -36
3735734, 1710336968, "2024/3/13 13:36:8",  7,  -60,  1005,  0,  0,  -1,  -11,  -27,  -37
3735934, 1710336969, "2024/3/13 13:36:9",  6,  -60,  1005,  0,  0,  0,  -10,  -27,  -35
3736134, 1710336969, "2024/3/13 13:36:9",  7,  -54,  1001,  0,  0,  0,  -9,  -25,  -37
3736334, 1710336969, "2024/3/13 13:36:9",  5,  -59,  1001,  0,  0,  -1,  -10,  -26,  -37
3736534, 1710336969, "2024/3/13 13:36:9",  8,  -61,  1002,  0,  0,  0,  -9,  -28,  -37
3736734, 1710336969, "2024/3/13 13:36:9",  2,  -56,  1005,  0,  0,  -1,  -12,  -28,  -36
3736934, 1710336970, "2024/3/13 13:36:10",  5,  -62,  1003,  0,  0,  -1,  -11,  -27,  -36
3737134, 1710336970, "2024/3/13 13:36:10",  5,  -60,  1006,  0,  0,  0,  -9,  -25,  -36
3737334, 1710336970, "2024/3/13 13:36:10",  4,  -62,  1001,  0,  0,  0,  -11,  -26,  -38
3737534, 1710336970, "2024/3/13 13:36:10",  2,  -57,  1002,  0,  0,  -1,  -11,  -28,  -37
3737734, 1710336970, "2024/3/13 13:36:10",  4,  -64,  1004,  0,  0,  -1,  -11,  -26,  -37
3737934, 1710336971, "2024/3/13 13:36:11",  7,  -57,  1004,  0,  0,  -1,  -10,  -27,  -36
3738134, 1710336971, "2024/3/13 13:36:11",  9,  -57,  1003,  0,  0,  -1,  -10,  -27,  -37
3738334, 1710336971, "2024/3/13 13:36:11",  11,  -62,  1001,  0,  0,  0,  -11,  -26,  -36
3738534, 1710336971, "2024/3/13 13:36:11",  10,  -60,  1002,  0,  -1,  -1,  -12,  -27,  -36
3738734, 1710336971, "2024/3/13 13:36:11",  2,  -62,  1005,  0,  0,  -1,  -11,  -27,  -37
3738934, 1710336972, "2024/3/13 13:36:12",  2,  -54,  1004,  0,  0,  -1,  -10,  -27,  -36
3739134, 1710336972, "2024/3/13 13:36:12",  2,  -51,  1004,  0,  0,  0,  -9,  -26,  -37
3739334, 1710336972, "2024/3/13 13:36:12",  3,  -58,  1001,  0,  0,  -1,  -11,  -28,  -35
3739534, 1710336972, "2024/3/13 13:36:12",  10,  -52,  1006,  0,  0,  -1,  -10,  -26,  -37
3739734, 1710336972, "2024/3/13 13:36:12",  8,  -62,  1003,  0,  0,  -1,  -11,  -27,  -37
3739934, 1710336973, "2024/3/13 13:36:13",  4,  -56,  1001,  0,  0,  -1,  -9,  -27,  -38
3740134, 1710336973, "2024/3/13 13:36:13",  8,  -55,  1005,  0,  -1,  0,  -11,  -26,  -37
3740334, 1710336973, "2024/3/13 13:36:13",  4,  -59,  1004,  0,  0,  -1,  -9,  -27,  -37
3740534, 1710336973, "2024/3/13 13:36:13",  8,  -57,  1001,  0,  0,  -1,  -12,  -28,  -35
3740734, 1710336973, "2024/3/13 13:36:13",  4,  -51,  1002,  0,  0,  -1,  -11,  -28,  -37
3740934, 1710336974, "2024/3/13 13:36:14",  4,  -60,  1003,  0,  0,  -1,  -10,  -27,  -37
3741134, 1710336974, "2024/3/13 13:36:14",  -11,  -56,  979,  0,  0,  0,  -12,  -26,  -35
3741334, 1710336974, "2024/3/13 13:36:14",  -4,  -60,  1008,  0,  0,  0,  -10,  -25,  -36
3741534, 1710336974, "2024/3/13 13:36:14",  2,  -57,  1004,  0,  0,  -1,  -11,  -26,  -37
3741734, 1710336974, "2024/3/13 13:36:14",  4,  -59,  1000,  0,  0,  0,  -11,  -27,  -36
3741934, 1710336975, "2024/3/13 13:36:15",  3,  -60,  1001,  0,  0,  0,  -9,  -26,  -36
3742134, 1710336975, "2024/3/13 13:36:15",  4,  -57,  1004,  0,  0,  -1,  -10,  -27,  -36
3742334, 1710336975, "2024/3/13 13:36:15",  5,  -58,  1004,  0,  0,  -1,  -11,  -28,  -36
3742534, 1710336975, "2024/3/13 13:36:15",  5,  -58,  1003,  0,  0,  0,  -11,  -25,  -36
3742734, 1710336975, "2024/3/13 13:36:15",  4,  -58,  1005,  0,  -1,  -1,  -10,  -27,  -36
3742934, 1710336976, "2024/3/13 13:36:16",  5,  -60,  1002,  0,  0,  0,  -12,  -26,  -38
3743134, 1710336976, "2024/3/13 13:36:16",  5,  -59,  1004,  0,  0,  0,  -11,  -27,  -37
3743334, 1710336976, "2024/3/13 13:36:16",  6,  -57,  1003,  0,  0,  -1,  -11,  -28,  -37
3743534, 1710336976, "2024/3/13 13:36:16",  4,  -62,  1002,  0,  0,  0,  -11,  -26,  -37
3743734, 1710336976, "2024/3/13 13:36:16",  9,  -59,  1002,  0,  0,  0,  -12,  -26,  -36
3743934, 1710336977, "2024/3/13 13:36:17",  3,  -60,  1004,  0,  0,  0,  -11,  -25,  -37
3744134, 1710336977, "2024/3/13 13:36:17",  0,  -59,  1005,  0,  -1,  0,  -12,  -26,  -38
3744334, 1710336977, "2024/3/13 13:36:17",  6,  -60,  1005,  0,  0,  -1,  -11,  -27,  -36
3744534, 1710336977, "2024/3/13 13:36:17",  7,  -59,  1002,  0,  0,  -1,  -9,  -26,  -36
3744734, 1710336977, "2024/3/13 13:36:17",  6,  -58,  1000,  0,  -1,  -1,  -9,  -27,  -38
3744934, 1710336978, "2024/3/13 13:36:18",  2,  -55,  1006,  0,  0,  -1,  -10,  -26,  -36
3745134, 1710336978, "2024/3/13 13:36:18",  5,  -57,  1002,  0,  0,  0,  -10,  -27,  -36
3745334, 1710336978, "2024/3/13 13:36:18",  4,  -60,  1003,  0,  -1,  -1,  -10,  -28,  -36
3745534, 1710336978, "2024/3/13 13:36:18",  6,  -57,  1005,  0,  0,  -1,  -11,  -26,  -37
3745734, 1710336978, "2024/3/13 13:36:18",  3,  -60,  1000,  0,  -1,  0,  -12,  -29,  -36
3745934, 1710336979, "2024/3/13 13:36:19",  9,  -62,  1003,  0,  -1,  -1,  -10,  -27,  -37
3746134, 1710336979, "2024/3/13 13:36:19",  6,  -64,  1002,  0,  0,  0,  -11,  -28,  -37
3746334, 1710336979, "2024/3/13 13:36:19",  7,  -61,  1001,  0,  -1,  -1,  -11,  -27,  -35
3746534, 1710336979, "2024/3/13 13:36:19",  9,  -63,  1002,  0,  0,  -1,  -11,  -26,  -36
3746734, 1710336979, "2024/3/13 13:36:19",  7,  -58,  1002,  0,  0,  0,  -11,  -27,  -36
3746934, 1710336980, "2024/3/13 13:36:20",  -1,  -62,  999,  0,  -1,  -1,  -11,  -27,  -36
3747134, 1710336980, "2024/3/13 13:36:20",  8,  -61,  1003,  0,  0,  -1,  -11,  -27,  -36
3747334, 1710336980, "2024/3/13 13:36:20",  4,  -55,  1002,  0,  -1,  -1,  -12,  -26,  -36
3747534, 1710336980, "2024/3/13 13:36:20",  3,  -58,  1001,  0,  0,  0,  -10,  -25,  -37
3747734, 1710336980, "2024/3/13 13:36:20",  5,  -52,  1005,  0,  0,  -1,  -9,  -27,  -37
3747934, 1710336981, "2024/3/13 13:36:21",  1,  -55,  1002,  0,  0,  0,  -9,  -28,  -35
3748134, 1710336981, "2024/3/13 13:36:21",  7,  -59,  1001,  0,  0,  0,  -11,  -27,  -36
3748334, 1710336981, "2024/3/13 13:36:21",  1,  -56,  1001,  0,  0,  -1,  -11,  -26,  -37
3748534, 1710336981, "2024/3/13 13:36:21",  6,  -56,  1010,  0,  -1,  0,  -10,  -26,  -35
3748734, 1710336981, "2024/3/13 13:36:21",  10,  -57,  1006,  0,  -1,  -1,  -11,  -26,  -36
3748934, 1710336982, "2024/3/13 13:36:22",  6,  -56,  1002,  0,  0,  0,  -11,  -29,  -36
3749134, 1710336982, "2024/3/13 13:36:22",  8,  -52,  1001,  0,  0,  0,  -9,  -27,  -35
3749334, 1710336982, "2024/3/13 13:36:22",  9,  -57,  1003,  0,  0,  -1,  -11,  -27,  -35
3749534, 1710336982, "2024/3/13 13:36:22",  7,  -58,  1001,  0,  0,  -1,  -11,  -27,  -35
3749734, 1710336982, "2024/3/13 13:36:22",  6,  -54,  1006,  0,  0,  -1,  -11,  -27,  -36
3749934, 1710336983, "2024/3/13 13:36:23",  6,  -51,  1007,  0,  0,  0,  -12,  -27,  -36
3750134, 1710336983, "2024/3/13 13:36:23",  10,  -60,  1005,  0,  0,  -1,  -10,  -24,  -36
3750334, 1710336983, "2024/3/13 13:36:23",  10,  -61,  1004,  0,  0,  0,  -10,  -26,  -37
3750534, 1710336983, "2024/3/13 13:36:23",  12,  -59,  1004,  0,  0,  0,  -11,  -27,  -37
3750734, 1710336983, "2024/3/13 13:36:23",  7,  -63,  1000,  0,  0,  0,  -10,  -25,  -37
3750934, 1710336984, "2024/3/13 13:36:24",  1,  -53,  1001,  0,  0,  0,  -11,  -27,  -36
3751134, 1710336984, "2024/3/13 13:36:24",  4,  -48,  1000,  0,  0,  0,  -10,  -27,  -37
3751334, 1710336984, "2024/3/13 13:36:24",  5,  -54,  1000,  0,  0,  -1,  -11,  -27,  -37
3751534, 1710336984, "2024/3/13 13:36:24",  4,  -57,  1001,  0,  0,  -1,  -11,  -27,  -36
3751734, 1710336984, "2024/3/13 13:36:24",  10,  -57,  1007,  0,  0,  -1,  -11,  -26,  -36
3751934, 1710336985, "2024/3/13 13:36:25",  3,  -69,  1001,  0,  0,  0,  -11,  -26,  -36
3752134, 1710336985, "2024/3/13 13:36:25",  10,  -64,  1002,  0,  0,  0,  -10,  -25,  -37
3752334, 1710336985, "2024/3/13 13:36:25",  9,  -58,  1001,  0,  0,  -1,  -10,  -26,  -36
3752534, 1710336985, "2024/3/13 13:36:25",  7,  -61,  1005,  0,  0,  -1,  -11,  -27,  -36
3752734, 1710336985, "2024/3/13 13:36:25",  6,  -59,  999,  0,  0,  0,  -11,  -26,  -36
3752934, 1710336986, "2024/3/13 13:36:26",  4,  -61,  1000,  0,  0,  0,  -11,  -27,  -36
3753134, 1710336986, "2024/3/13 13:36:26",  7,  -58,  1003,  0,  0,  0,  -10,  -26,  -37
3753334, 1710336986, "2024/3/13 13:36:26",  0,  -61,  1003,  0,  -1,  0,  -9,  -27,  -37
3753534, 1710336986, "2024/3/13 13:36:26",  4,  -55,  1002,  0,  0,  -1,  -11,  -25,  -37
3753734, 1710336986, "2024/3/13 13:36:26",  -1,  -52,  1001,  0,  0,  -1,  -12,  -27,  -38
3753934, 1710336987, "2024/3/13 13:36:27",  5,  -53,  1004,  0,  0,  -1,  -10,  -26,  -37
3754134, 1710336987, "2024/3/13 13:36:27",  7,  -64,  1004,  0,  0,  -1,  -9,  -25,  -36
3754334, 1710336987, "2024/3/13 13:36:27",  9,  -60,  1000,  0,  0,  -1,  -10,  -28,  -36
3754534, 1710336987, "2024/3/13 13:36:27",  4,  -62,  1004,  0,  0,  -1,  -10,  -27,  -37
3754734, 1710336987, "2024/3/13 13:36:27",  7,  -64,  1005,  0,  0,  -1,  -9,  -27,  -36
3754934, 1710336988, "2024/3/13 13:36:28",  4,  -64,  1003,  0,  0,  -1,  -11,  -26,  -36
3755134, 1710336988, "2024/3/13 13:36:28",  9,  -61,  1006,  0,  0,  -1,  -11,  -26,  -37
3755334, 1710336988, "2024/3/13 13:36:28",  11,  -61,  1003,  0,  0,  -1,  -9,  -28,  -37
3755534, 1710336988, "2024/3/13 13:36:28",  6,  -63,  1003,  0,  0,  -1,  -12,  -28,  -38
3755734, 1710336988, "2024/3/13 13:36:28",  15,  -64,  1004,  0,  0,  -1,  -10,  -26,  -36
3755934, 1710336989, "2024/3/13 13:36:29",  7,  -59,  997,  0,  0,  0,  -10,  -27,  -36
3756134, 1710336989, "2024/3/13 13:36:29",  6,  -60,  1002,  0,  0,  -1,  -11,  -25,  -36
3756334, 1710336989, "2024/3/13 13:36:29",  11,  -60,  1006,  0,  0,  -1,  -9,  -27,  -36
3756534, 1710336989, "2024/3/13 13:36:29",  14,  -64,  1003,  0,  0,  -1,  -11,  -24,  -36
3756734, 1710336989, "2024/3/13 13:36:29",  5,  -60,  1007,  0,  0,  0,  -11,  -28,  -37
3756934, 1710336990, "2024/3/13 13:36:30",  7,  -58,  1002,  0,  0,  -1,  -10,  -28,  -35
3757134, 1710336990, "2024/3/13 13:36:30",  2,  -58,  1003,  0,  0,  0,  -11,  -27,  -37
3757334, 1710336990, "2024/3/13 13:36:30",  4,  -61,  1004,  0,  0,  -1,  -10,  -27,  -36
3757534, 1710336990, "2024/3/13 13:36:30",  11,  -68,  1004,  0,  0,  0,  -9,  -27,  -35
3757734, 1710336990, "2024/3/13 13:36:30",  10,  -61,  1003,  0,  0,  -1,  -11,  -27,  -37
3757934, 1710336991, "2024/3/13 13:36:31",  -12,  -59,  987,  0,  -1,  -1,  -10,  -27,  -37
3758134, 1710336991, "2024/3/13 13:36:31",  12,  -53,  1009,  0,  0,  -1,  -10,  -26,  -35
3758334, 1710336991, "2024/3/13 13:36:31",  4,  -64,  1001,  0,  0,  -1,  -11,  -26,  -36
3758534, 1710336991, "2024/3/13 13:36:31",  6,  -65,  1004,  0,  0,  0,  -10,  -26,  -35
3758734, 1710336991, "2024/3/13 13:36:31",  12,  -60,  1002,  0,  0,  -1,  -11,  -25,  -37
3758934, 1710336992, "2024/3/13 13:36:32",  6,  -57,  1002,  0,  -1,  -1,  -11,  -27,  -36
3759134, 1710336992, "2024/3/13 13:36:32",  5,  -60,  1003,  0,  0,  -1,  -11,  -26,  -35
3759334, 1710336992, "2024/3/13 13:36:32",  6,  -55,  1003,  0,  0,  0,  -12,  -25,  -36
3759534, 1710336992, "2024/3/13 13:36:32",  5,  -47,  983,  1,  0,  -1,  -10,  -27,  -36
3759734, 1710336992, "2024/3/13 13:36:32",  7,  -59,  1001,  0,  0,  0,  -11,  -27,  -36
3759934, 1710336993, "2024/3/13 13:36:33",  -2,  -66,  991,  1,  0,  0,  -11,  -27,  -38
3760134, 1710336993, "2024/3/13 13:36:33",  4,  -63,  1006,  0,  0,  -1,  -11,  -26,  -37
3760334, 1710336993, "2024/3/13 13:36:33",  4,  -49,  1001,  0,  0,  -1,  -10,  -28,  -36
3760534, 1710336993, "2024/3/13 13:36:33",  10,  -54,  1004,  0,  0,  -1,  -11,  -27,  -37
3760734, 1710336993, "2024/3/13 13:36:33",  12,  -54,  1002,  0,  0,  -1,  -12,  -28,  -37
3760934, 1710336994, "2024/3/13 13:36:34",  4,  -63,  1001,  0,  -1,  -1,  -11,  -27,  -37
3761134, 1710336994, "2024/3/13 13:36:34",  10,  -59,  1005,  0,  0,  0,  -9,  -26,  -36
3761334, 1710336994, "2024/3/13 13:36:34",  7,  -61,  1002,  0,  0,  -1,  -11,  -27,  -37
3761534, 1710336994, "2024/3/13 13:36:34",  12,  -58,  1005,  0,  0,  0,  -10,  -26,  -37
3761734, 1710336994, "2024/3/13 13:36:34",  8,  -61,  1002,  0,  0,  -1,  -11,  -26,  -36
3761934, 1710336995, "2024/3/13 13:36:35",  9,  -55,  1007,  0,  -1,  -1,  -10,  -26,  -38
3762134, 1710336995, "2024/3/13 13:36:35",  5,  -62,  1005,  0,  0,  -1,  -12,  -25,  -37
3762334, 1710336995, "2024/3/13 13:36:35",  2,  -63,  1002,  0,  0,  -1,  -11,  -27,  -37
3762534, 1710336995, "2024/3/13 13:36:35",  16,  -59,  1005,  0,  0,  0,  -11,  -25,  -37
3762734, 1710336995, "2024/3/13 13:36:35",  14,  -60,  1011,  1,  0,  0,  -11,  -26,  -37
3762934, 1710336996, "2024/3/13 13:36:36",  5,  -50,  1000,  0,  0,  0,  -11,  -27,  -37
3763134, 1710336996, "2024/3/13 13:36:36",  9,  -58,  1004,  0,  -1,  -1,  -10,  -28,  -37
3763334, 1710336996, "2024/3/13 13:36:36",  6,  -58,  1004,  0,  0,  0,  -11,  -27,  -37
3763534, 1710336996, "2024/3/13 13:36:36",  2,  -57,  1003,  0,  -1,  -1,  -10,  -26,  -36
3763734, 1710336996, "2024/3/13 13:36:36",  2,  -60,  1001,  0,  0,  -1,  -12,  -27,  -35
3763934, 1710336997, "2024/3/13 13:36:37",  5,  -54,  1001,  0,  0,  0,  -12,  -25,  -37
3764134, 1710336997, "2024/3/13 13:36:37",  -1,  -58,  1006,  0,  0,  -1,  -12,  -27,  -36
3764334, 1710336997, "2024/3/13 13:36:37",  1,  -59,  1009,  0,  -1,  -1,  -10,  -26,  -37
3764534, 1710336997, "2024/3/13 13:36:37",  -1,  -48,  1007,  0,  0,  -1,  -10,  -28,  -35
3764734, 1710336997, "2024/3/13 13:36:37",  1,  -57,  1002,  0,  -1,  -1,  -10,  -27,  -36
3764934, 1710336998, "2024/3/13 13:36:38",  6,  -61,  1005,  0,  0,  -1,  -11,  -26,  -37
3765134, 1710336998, "2024/3/13 13:36:38",  9,  -60,  1004,  0,  0,  -1,  -10,  -27,  -37
3765334, 1710336998, "2024/3/13 13:36:38",  12,  -60,  1004,  0,  0,  0,  -12,  -26,  -35
3765534, 1710336998, "2024/3/13 13:36:38",  12,  -50,  1006,  0,  -1,  -1,  -9,  -28,  -36
3765734, 1710336998, "2024/3/13 13:36:38",  6,  -58,  1006,  0,  0,  -1,  -11,  -27,  -36
3765934, 1710336999, "2024/3/13 13:36:39",  8,  -62,  1011,  0,  0,  -1,  -10,  -27,  -37
3766134, 1710336999, "2024/3/13 13:36:39",  5,  -61,  1005,  0,  0,  -1,  -10,  -28,  -36
3766334, 1710336999, "2024/3/13 13:36:39",  6,  -65,  1007,  0,  0,  0,  -10,  -27,  -37
3766534, 1710336999, "2024/3/13 13:36:39",  2,  -58,  1006,  0,  0,  -1,  -12,  -28,  -38
3766734, 1710336999, "2024/3/13 13:36:39",  3,  -54,  1003,  0,  0,  -1,  -11,  -27,  -35
3766934, 1710337000, "2024/3/13 13:36:40",  7,  -52,  1003,  0,  0,  0,  -11,  -27,  -37
3767134, 1710337000, "2024/3/13 13:36:40",  6,  -54,  1016,  0,  0,  -1,  -11,  -26,  -37
3767334, 1710337000, "2024/3/13 13:36:40",  2,  -51,  1000,  0,  -1,  -1,  -10,  -26,  -37
3767534, 1710337000, "2024/3/13 13:36:40",  5,  -62,  1003,  0,  0,  -1,  -10,  -27,  -38
3767734, 1710337000, "2024/3/13 13:36:40",  3,  -58,  1002,  0,  0,  -1,  -9,  -26,  -38
3767934, 1710337001, "2024/3/13 13:36:41",  8,  -59,  1005,  0,  -1,  0,  -10,  -27,  -37
3768134, 1710337001, "2024/3/13 13:36:41",  12,  -64,  1002,  0,  0,  -1,  -12,  -27,  -37
3768334, 1710337001, "2024/3/13 13:36:41",  9,  -58,  1003,  0,  -1,  -1,  -9,  -28,  -36
3768534, 1710337001, "2024/3/13 13:36:41",  5,  -63,  1006,  0,  -1,  -1,  -11,  -26,  -37
3768734, 1710337001, "2024/3/13 13:36:41",  7,  -56,  1003,  0,  -1,  -1,  -10,  -25,  -36
3768934, 1710337002, "2024/3/13 13:36:42",  9,  -57,  1006,  0,  0,  0,  -11,  -26,  -36
3769134, 1710337002, "2024/3/13 13:36:42",  2,  -60,  1002,  0,  0,  -1,  -10,  -26,  -37
3769334, 1710337002, "2024/3/13 13:36:42",  7,  -57,  1000,  0,  0,  0,  -12,  -28,  -36
3769534, 1710337002, "2024/3/13 13:36:42",  8,  -61,  1001,  0,  0,  -1,  -11,  -25,  -39
3769734, 1710337002, "2024/3/13 13:36:42",  9,  -56,  1004,  0,  0,  0,  -11,  -26,  -36
3769934, 1710337003, "2024/3/13 13:36:43",  12,  -57,  1003,  0,  0,  -1,  -10,  -26,  -37
3770134, 1710337003, "2024/3/13 13:36:43",  6,  -53,  1002,  0,  0,  -1,  -11,  -27,  -34
3770334, 1710337003, "2024/3/13 13:36:43",  6,  -60,  1001,  0,  0,  -1,  -11,  -26,  -37
3770534, 1710337003, "2024/3/13 13:36:43",  9,  -60,  1005,  0,  0,  -1,  -11,  -27,  -37
3770734, 1710337003, "2024/3/13 13:36:43",  8,  -61,  1005,  0,  0,  0,  -11,  -25,  -36
3770934, 1710337004, "2024/3/13 13:36:44",  10,  -56,  1004,  0,  -1,  0,  -11,  -27,  -36
3771134, 1710337004, "2024/3/13 13:36:44",  4,  -59,  1004,  0,  -1,  -1,  -12,  -26,  -36
3771334, 1710337004, "2024/3/13 13:36:44",  8,  -60,  1001,  0,  0,  -1,  -11,  -28,  -36
3771534, 1710337004, "2024/3/13 13:36:44",  9,  -58,  1002,  0,  0,  0,  -11,  -25,  -37
3771734, 1710337004, "2024/3/13 13:36:44",  5,  -59,  1003,  0,  0,  0,  -12,  -27,  -37
3771934, 1710337005, "2024/3/13 13:36:45",  6,  -62,  1003,  0,  0,  0,  -10,  -28,  -36
3772134, 1710337005, "2024/3/13 13:36:45",  5,  -58,  1000,  0,  -1,  0,  -10,  -26,  -37
3772334, 1710337005, "2024/3/13 13:36:45",  6,  -59,  1002,  0,  0,  -1,  -11,  -27,  -36
3772534, 1710337005, "2024/3/13 13:36:45",  3,  -51,  1001,  0,  0,  0,  -11,  -26,  -36
3772734, 1710337005, "2024/3/13 13:36:45",  6,  -57,  1000,  0,  0,  0,  -10,  -27,  -37
3772934, 1710337006, "2024/3/13 13:36:46",  0,  -63,  1002,  0,  0,  0,  -11,  -26,  -37
3773134, 1710337006, "2024/3/13 13:36:46",  3,  -57,  1002,  0,  0,  0,  -10,  -25,  -35
3773334, 1710337006, "2024/3/13 13:36:46",  8,  -62,  1005,  0,  0,  0,  -11,  -27,  -35
3773534, 1710337006, "2024/3/13 13:36:46",  2,  -60,  1004,  0,  0,  0,  -11,  -26,  -37
3773734, 1710337006, "2024/3/13 13:36:46",  6,  -60,  1002,  0,  0,  0,  -10,  -27,  -37
3773934, 1710337007, "2024/3/13 13:36:47",  3,  -63,  1003,  0,  0,  -1,  -10,  -26,  -35
3774134, 1710337007, "2024/3/13 13:36:47",  3,  -60,  1002,  0,  0,  -1,  -11,  -24,  -37
3774334, 1710337007, "2024/3/13 13:36:47",  2,  -59,  1002,  0,  -1,  -1,  -11,  -27,  -35
3774534, 1710337007, "2024/3/13 13:36:47",  8,  -60,  1003,  0,  0,  -1,  -9,  -26,  -36
3774734, 1710337007, "2024/3/13 13:36:47",  9,  -49,  1004,  0,  0,  -1,  -10,  -26,  -37
3774934, 1710337008, "2024/3/13 13:36:48",  5,  -61,  1004,  0,  -1,  -1,  -11,  -27,  -37
3775134, 1710337008, "2024/3/13 13:36:48",  5,  -56,  999,  0,  0,  -1,  -13,  -27,  -36
3775334, 1710337008, "2024/3/13 13:36:48",  12,  -57,  1006,  0,  0,  -1,  -8,  -28,  -36
3775534, 1710337008, "2024/3/13 13:36:48",  8,  -63,  1006,  0,  0,  -1,  -10,  -26,  -35
3775734, 1710337008, "2024/3/13 13:36:48",  2,  -58,  1007,  0,  0,  0,  -9,  -27,  -36
3775934, 1710337009, "2024/3/13 13:36:49",  2,  -56,  1000,  0,  0,  -1,  -11,  -27,  -37
3776134, 1710337009, "2024/3/13 13:36:49",  10,  -61,  1003,  0,  0,  0,  -11,  -27,  -36
3776334, 1710337009, "2024/3/13 13:36:49",  8,  -61,  1004,  0,  0,  0,  -11,  -26,  -36
3776534, 1710337009, "2024/3/13 13:36:49",  6,  -66,  1001,  0,  0,  -1,  -11,  -27,  -36
3776734, 1710337009, "2024/3/13 13:36:49",  6,  -65,  1006,  0,  -1,  0,  -11,  -27,  -36
3776934, 1710337010, "2024/3/13 13:36:50",  10,  -58,  1001,  0,  0,  0,  -10,  -27,  -36
3777134, 1710337010, "2024/3/13 13:36:50",  7,  -60,  999,  0,  0,  -1,  -12,  -26,  -36
3777334, 1710337010, "2024/3/13 13:36:50",  12,  -55,  1008,  0,  0,  -1,  -10,  -27,  -35
3777534, 1710337010, "2024/3/13 13:36:50",  7,  -60,  1005,  0,  -1,  -1,  -9,  -28,  -36
3777734, 1710337010, "2024/3/13 13:36:50",  6,  -55,  1005,  1,  0,  -1,  -13,  -27,  -36
3777934, 1710337011, "2024/3/13 13:36:51",  6,  -62,  999,  0,  0,  0,  -11,  -26,  -36
3778134, 1710337011, "2024/3/13 13:36:51",  6,  -58,  1000,  0,  0,  -1,  -11,  -27,  -37
3778334, 1710337011, "2024/3/13 13:36:51",  2,  -60,  1001,  0,  0,  0,  -10,  -26,  -37
3778534, 1710337011, "2024/3/13 13:36:51",  12,  -58,  1004,  0,  0,  -1,  -10,  -26,  -37
3778734, 1710337011, "2024/3/13 13:36:51",  -10,  -56,  995,  0,  0,  -1,  -10,  -27,  -38
3778934, 1710337012, "2024/3/13 13:36:52",  3,  -68,  1001,  0,  0,  -1,  -10,  -26,  -37
3779134, 1710337012, "2024/3/13 13:36:52",  2,  -60,  1019,  0,  0,  -1,  -11,  -27,  -36
3779334, 1710337012, "2024/3/13 13:36:52",  2,  -55,  1004,  0,  -1,  -1,  -11,  -26,  -36
3779534, 1710337012, "2024/3/13 13:36:52",  6,  -57,  1004,  0,  0,  0,  -11,  -26,  -36
3779734, 1710337012, "2024/3/13 13:36:52",  11,  -58,  1005,  0,  0,  -1,  -11,  -26,  -36
3779934, 1710337013, "2024/3/13 13:36:53",  0,  -60,  1003,  0,  0,  0,  -10,  -25,  -38
3780134, 1710337013, "2024/3/13 13:36:53",  7,  -55,  997,  0,  -1,  0,  -11,  -25,  -36
3780334, 1710337013, "2024/3/13 13:36:53",  8,  -64,  1006,  0,  0,  -1,  -12,  -27,  -37
3780534, 1710337013, "2024/3/13 13:36:53",  7,  -57,  1003,  0,  0,  -1,  -11,  -27,  -36
3780734, 1710337013, "2024/3/13 13:36:53",  1,  -59,  1001,  0,  0,  -1,  -10,  -26,  -37
3780934, 1710337014, "2024/3/13 13:36:54",  0,  -59,  1003,  0,  -1,  0,  -9,  -26,  -35
3781134, 1710337014, "2024/3/13 13:36:54",  9,  -50,  993,  0,  0,  -1,  -10,  -25,  -35
3781334, 1710337014, "2024/3/13 13:36:54",  5,  -59,  999,  0,  0,  0,  -12,  -27,  -37
3781534, 1710337014, "2024/3/13 13:36:54",  -1,  -55,  1004,  0,  -1,  0,  -10,  -25,  -37
3781734, 1710337014, "2024/3/13 13:36:54",  2,  -59,  1001,  0,  -1,  -1,  -12,  -25,  -38
3781934, 1710337015, "2024/3/13 13:36:55",  9,  -57,  1006,  0,  -1,  -1,  -11,  -27,  -36
3782134, 1710337015, "2024/3/13 13:36:55",  7,  -62,  1001,  0,  0,  -1,  -11,  -27,  -36
3782334, 1710337015, "2024/3/13 13:36:55",  5,  -56,  999,  0,  0,  -1,  -11,  -26,  -36
3782534, 1710337015, "2024/3/13 13:36:55",  5,  -63,  1010,  0,  0,  -1,  -10,  -27,  -36
3782734, 1710337015, "2024/3/13 13:36:55",  1,  -52,  1007,  0,  0,  0,  -12,  -27,  -35
3782934, 1710337016, "2024/3/13 13:36:56",  4,  -54,  1006,  0,  -1,  -1,  -10,  -26,  -38
3783134, 1710337016, "2024/3/13 13:36:56",  2,  -66,  1004,  0,  -1,  0,  -10,  -25,  -37
3783334, 1710337016, "2024/3/13 13:36:56",  9,  -53,  1006,  0,  0,  0,  -12,  -26,  -36
3783534, 1710337016, "2024/3/13 13:36:56",  -2,  -52,  1001,  0,  0,  -1,  -11,  -27,  -36
3783734, 1710337016, "2024/3/13 13:36:56",  6,  -56,  1004,  0,  0,  -1,  -11,  -26,  -36
3783934, 1710337017, "2024/3/13 13:36:57",  9,  -58,  999,  0,  0,  0,  -10,  -27,  -36
3784134, 1710337017, "2024/3/13 13:36:57",  -3,  -64,  1002,  0,  -1,  0,  -11,  -27,  -37
3784334, 1710337017, "2024/3/13 13:36:57",  1,  -54,  1004,  0,  -1,  -1,  -11,  -28,  -37
3784534, 1710337017, "2024/3/13 13:36:57",  5,  -60,  1004,  0,  -1,  -1,  -11,  -26,  -37
3784734, 1710337017, "2024/3/13 13:36:57",  3,  -51,  1000,  0,  -1,  -1,  -12,  -27,  -37
3784934, 1710337018, "2024/3/13 13:36:58",  4,  -60,  1003,  0,  0,  0,  -11,  -26,  -38
3785134, 1710337018, "2024/3/13 13:36:58",  9,  -60,  1002,  0,  -1,  0,  -11,  -27,  -36
3785334, 1710337018, "2024/3/13 13:36:58",  8,  -59,  1002,  0,  0,  -1,  -11,  -27,  -37
3785534, 1710337018, "2024/3/13 13:36:58",  14,  -59,  1002,  0,  0,  0,  -11,  -26,  -36
3785734, 1710337018, "2024/3/13 13:36:58",  11,  -53,  1012,  0,  0,  -1,  -11,  -25,  -38
3785934, 1710337019, "2024/3/13 13:36:59",  7,  -56,  1002,  0,  0,  0,  -11,  -27,  -37
3786134, 1710337019, "2024/3/13 13:36:59",  5,  -56,  1005,  0,  0,  0,  -12,  -27,  -36
3786334, 1710337019, "2024/3/13 13:36:59",  4,  -53,  1008,  0,  0,  -1,  -11,  -26,  -37
3786534, 1710337019, "2024/3/13 13:36:59",  8,  -55,  1012,  0,  0,  -1,  -10,  -27,  -37
3786734, 1710337019, "2024/3/13 13:36:59",  12,  -66,  1005,  0,  -1,  -1,  -10,  -27,  -36
3786934, 1710337020, "2024/3/13 13:37:0",  3,  -63,  1007,  0,  -1,  0,  -10,  -27,  -36
3787134, 1710337020, "2024/3/13 13:37:0",  -1,  -64,  1004,  0,  0,  0,  -12,  -26,  -36
3787334, 1710337020, "2024/3/13 13:37:0",  7,  -57,  1005,  0,  0,  -1,  -11,  -25,  -37
3787534, 1710337020, "2024/3/13 13:37:0",  4,  -59,  1001,  0,  0,  -1,  -11,  -27,  -36
3787734, 1710337020, "2024/3/13 13:37:0",  5,  -59,  1006,  0,  0,  0,  -11,  -27,  -35
3787934, 1710337021, "2024/3/13 13:37:1",  6,  -63,  1003,  0,  0,  0,  -11,  -26,  -37
3788134, 1710337021, "2024/3/13 13:37:1",  1,  -58,  1004,  0,  -1,  -1,  -12,  -28,  -37
3788334, 1710337021, "2024/3/13 13:37:1",  7,  -63,  1000,  0,  -1,  -1,  -10,  -26,  -37
3788534, 1710337021, "2024/3/13 13:37:1",  5,  -52,  1005,  0,  0,  -1,  -10,  -26,  -37
3788734, 1710337021, "2024/3/13 13:37:1",  3,  -58,  1004,  0,  0,  -1,  -11,  -27,  -38
3788934, 1710337022, "2024/3/13 13:37:2",  5,  -56,  1005,  0,  0,  -1,  -10,  -26,  -39
3789134, 1710337022, "2024/3/13 13:37:2",  11,  -66,  1003,  0,  0,  -1,  -11,  -27,  -36
3789334, 1710337022, "2024/3/13 13:37:2",  12,  -64,  1002,  0,  0,  -1,  -11,  -27,  -38
3789534, 1710337022, "2024/3/13 13:37:2",  9,  -61,  1004,  0,  0,  0,  -11,  -27,  -38
3789734, 1710337022, "2024/3/13 13:37:2",  5,  -63,  1001,  0,  -1,  0,  -11,  -27,  -36
3789934, 1710337023, "2024/3/13 13:37:3",  3,  -58,  996,  0,  0,  0,  -10,  -26,  -36
3790134, 1710337023, "2024/3/13 13:37:3",  6,  -57,  1004,  0,  -1,  -1,  -12,  -26,  -37
3790334, 1710337023, "2024/3/13 13:37:3",  10,  -59,  1003,  0,  0,  -1,  -10,  -26,  -36
3790534, 1710337023, "2024/3/13 13:37:3",  5,  -55,  1004,  0,  0,  -1,  -10,  -25,  -37
3790734, 1710337023, "2024/3/13 13:37:3",  5,  -55,  1003,  0,  0,  0,  -11,  -27,  -36
3790934, 1710337024, "2024/3/13 13:37:4",  7,  -62,  1007,  0,  0,  0,  -9,  -25,  -36
3791134, 1710337024, "2024/3/13 13:37:4",  7,  -55,  1003,  0,  0,  -1,  -10,  -26,  -36
3791334, 1710337024, "2024/3/13 13:37:4",  8,  -61,  1006,  0,  0,  -1,  -10,  -27,  -37
3791534, 1710337024, "2024/3/13 13:37:4",  6,  -55,  1007,  0,  -1,  -1,  -11,  -27,  -37
3791734, 1710337024, "2024/3/13 13:37:4",  3,  -58,  1004,  0,  0,  -1,  -10,  -27,  -36
3791934, 1710337025, "2024/3/13 13:37:5",  8,  -57,  1005,  0,  0,  0,  -11,  -26,  -37
3792134, 1710337025, "2024/3/13 13:37:5",  5,  -61,  1000,  0,  0,  -1,  -11,  -27,  -36
3792334, 1710337025, "2024/3/13 13:37:5",  1,  -60,  1006,  0,  -1,  -1,  -13,  -25,  -37
3792534, 1710337025, "2024/3/13 13:37:5",  9,  -61,  1003,  0,  0,  -1,  -10,  -26,  -36
3792734, 1710337025, "2024/3/13 13:37:5",  7,  -60,  1003,  0,  0,  -1,  -11,  -25,  -37
3792934, 1710337026, "2024/3/13 13:37:6",  11,  -63,  1005,  0,  0,  -1,  -10,  -27,  -37
3793134, 1710337026, "2024/3/13 13:37:6",  6,  -65,  1005,  0,  0,  0,  -9,  -25,  -36
3793334, 1710337026, "2024/3/13 13:37:6",  8,  -57,  1003,  0,  -1,  -1,  -10,  -26,  -36
3793534, 1710337026, "2024/3/13 13:37:6",  6,  -56,  1002,  0,  -1,  -1,  -11,  -26,  -36
3793734, 1710337026, "2024/3/13 13:37:6",  8,  -61,  1006,  0,  0,  0,  -10,  -26,  -35
3793934, 1710337027, "2024/3/13 13:37:7",  7,  -47,  1003,  0,  0,  -1,  -10,  -27,  -37
3794134, 1710337027, "2024/3/13 13:37:7",  6,  -57,  1002,  0,  0,  -1,  -11,  -24,  -37
3794334, 1710337027, "2024/3/13 13:37:7",  12,  -60,  1000,  0,  -1,  0,  -11,  -26,  -36
3794534, 1710337027, "2024/3/13 13:37:7",  8,  -56,  1005,  0,  0,  -1,  -11,  -28,  -35
3794734, 1710337027, "2024/3/13 13:37:7",  7,  -63,  1005,  0,  -1,  -1,  -10,  -26,  -36
3794934, 1710337028, "2024/3/13 13:37:8",  10,  -57,  1003,  0,  0,  -1,  -11,  -28,  -36
3795134, 1710337028, "2024/3/13 13:37:8",  9,  -61,  1004,  0,  0,  0,  -10,  -25,  -36
3795334, 1710337028, "2024/3/13 13:37:8",  2,  -60,  1003,  0,  0,  -1,  -11,  -26,  -36
3795534, 1710337028, "2024/3/13 13:37:8",  4,  -56,  1002,  0,  0,  -1,  -11,  -26,  -36
3795734, 1710337028, "2024/3/13 13:37:8",  6,  -61,  1003,  0,  0,  -1,  -10,  -26,  -36
3795934, 1710337029, "2024/3/13 13:37:9",  9,  -61,  1000,  0,  0,  -1,  -10,  -27,  -37
3796134, 1710337029, "2024/3/13 13:37:9",  7,  -63,  1000,  0,  0,  -1,  -9,  -27,  -37
3796334, 1710337029, "2024/3/13 13:37:9",  7,  -64,  1000,  0,  0,  -1,  -12,  -27,  -37
3796534, 1710337029, "2024/3/13 13:37:9",  6,  -57,  1006,  0,  0,  -1,  -11,  -27,  -37
3796734, 1710337029, "2024/3/13 13:37:9",  0,  -59,  1007,  1,  0,  -1,  -10,  -27,  -37
3796934, 1710337030, "2024/3/13 13:37:10",  10,  -58,  1006,  0,  0,  -1,  -10,  -26,  -35
3797134, 1710337030, "2024/3/13 13:37:10",  9,  -64,  1003,  0,  0,  -1,  -11,  -26,  -36
3797334, 1710337030, "2024/3/13 13:37:10",  4,  -56,  1016,  0,  0,  -1,  -11,  -25,  -36
3797534, 1710337030, "2024/3/13 13:37:10",  -3,  -60,  1002,  0,  0,  -1,  -9,  -29,  -35
3797734, 1710337030, "2024/3/13 13:37:10",  1,  -53,  1003,  0,  0,  0,  -9,  -25,  -36
3797934, 1710337031, "2024/3/13 13:37:11",  3,  -64,  1002,  0,  0,  -1,  -9,  -26,  -36
3798134, 1710337031, "2024/3/13 13:37:11",  16,  -54,  1003,  0,  0,  -1,  -10,  -26,  -36
3798334, 1710337031, "2024/3/13 13:37:11",  10,  -63,  1001,  0,  0,  0,  -12,  -27,  -37
3798534, 1710337031, "2024/3/13 13:37:11",  21,  -54,  1001,  0,  0,  -1,  -10,  -27,  -36
3798734, 1710337031, "2024/3/13 13:37:11",  11,  -56,  1007,  0,  0,  -1,  -11,  -26,  -36
3798934, 1710337032, "2024/3/13 13:37:12",  6,  -59,  999,  0,  0,  -1,  -10,  -26,  -36
3799134, 1710337032, "2024/3/13 13:37:12",  4,  -60,  1002,  0,  0,  0,  -9,  -26,  -37
3799334, 1710337032, "2024/3/13 13:37:12",  10,  -53,  1001,  0,  0,  -1,  -10,  -27,  -35
3799534, 1710337032, "2024/3/13 13:37:12",  6,  -55,  1004,  0,  0,  -1,  -11,  -27,  -37
3799734, 1710337032, "2024/3/13 13:37:12",  9,  -52,  1000,  0,  0,  0,  -11,  -26,  -36
3799934, 1710337033, "2024/3/13 13:37:13",  3,  -60,  1004,  0,  0,  0,  -11,  -26,  -35
3800134, 1710337033, "2024/3/13 13:37:13",  7,  -57,  1003,  0,  0,  -1,  -10,  -26,  -38
3800334, 1710337033, "2024/3/13 13:37:13",  1,  -60,  1001,  0,  0,  0,  -12,  -27,  -36
3800534, 1710337033, "2024/3/13 13:37:13",  6,  -64,  1004,  0,  0,  0,  -11,  -28,  -36
3800734, 1710337033, "2024/3/13 13:37:13",  5,  -68,  1005,  0,  0,  -1,  -11,  -26,  -35
3800934, 1710337034, "2024/3/13 13:37:14",  3,  -54,  1000,  0,  0,  -1,  -11,  -26,  -37
3801134, 1710337034, "2024/3/13 13:37:14",  8,  -62,  1004,  0,  0,  0,  -12,  -26,  -37
3801334, 1710337034, "2024/3/13 13:37:14",  2,  -65,  1002,  0,  0,  0,  -9,  -27,  -37
3801534, 1710337034, "2024/3/13 13:37:14",  6,  -60,  1007,  0,  0,  0,  -10,  -27,  -36
3801734, 1710337034, "2024/3/13 13:37:14",  5,  -61,  1006,  0,  0,  -1,  -11,  -27,  -38
3801934, 1710337035, "2024/3/13 13:37:15",  4,  -63,  1001,  0,  0,  -1,  -10,  -26,  -34
3802134, 1710337035, "2024/3/13 13:37:15",  10,  -59,  1005,  0,  0,  -1,  -10,  -27,  -36
3802334, 1710337035, "2024/3/13 13:37:15",  9,  -62,  1005,  0,  -1,  0,  -12,  -26,  -36
3802534, 1710337035, "2024/3/13 13:37:15",  3,  -64,  1006,  0,  0,  0,  -10,  -26,  -36
3802734, 1710337036, "2024/3/13 13:37:16",  -5,  -60,  1006,  0,  0,  0,  -11,  -25,  -36
3802934, 1710337036, "2024/3/13 13:37:16",  -3,  -70,  1001,  0,  0,  -1,  -12,  -28,  -35
3803134, 1710337036, "2024/3/13 13:37:16",  -2,  -60,  999,  0,  0,  -1,  -11,  -25,  -36
3803334, 1710337036, "2024/3/13 13:37:16",  -1,  -60,  1004,  0,  -1,  -1,  -11,  -26,  -36
3803534, 1710337036, "2024/3/13 13:37:16",  2,  -64,  1009,  0,  0,  -1,  -11,  -26,  -36
3803734, 1710337037, "2024/3/13 13:37:17",  5,  -63,  1003,  0,  0,  -1,  -10,  -26,  -36
3803934, 1710337037, "2024/3/13 13:37:17",  2,  -58,  1004,  0,  0,  -1,  -11,  -26,  -36
3804134, 1710337037, "2024/3/13 13:37:17",  7,  -54,  1003,  0,  0,  0,  -12,  -26,  -37
3804334, 1710337037, "2024/3/13 13:37:17",  8,  -68,  1004,  0,  -1,  -1,  -11,  -27,  -36
3804534, 1710337037, "2024/3/13 13:37:17",  6,  -60,  1003,  1,  0,  -1,  -11,  -28,  -36
3804734, 1710337038, "2024/3/13 13:37:18",  10,  -55,  1005,  1,  -1,  -1,  -8,  -27,  -36
3804934, 1710337038, "2024/3/13 13:37:18",  12,  -59,  1006,  0,  0,  0,  -11,  -27,  -37
3805134, 1710337038, "2024/3/13 13:37:18",  10,  -64,  1004,  0,  0,  -1,  -11,  -26,  -37
3805334, 1710337038, "2024/3/13 13:37:18",  1,  -53,  1006,  1,  0,  -1,  -10,  -27,  -37
3805534, 1710337038, "2024/3/13 13:37:18",  7,  -67,  989,  1,  0,  -1,  -11,  -25,  -37
3805734, 1710337039, "2024/3/13 13:37:19",  3,  -51,  1004,  0,  0,  -1,  -10,  -27,  -37
3805934, 1710337039, "2024/3/13 13:37:19",  4,  -60,  1006,  0,  0,  -1,  -10,  -26,  -37
3806134, 1710337039, "2024/3/13 13:37:19",  9,  -59,  1004,  0,  0,  -1,  -10,  -27,  -37
3806334, 1710337039, "2024/3/13 13:37:19",  5,  -59,  997,  0,  0,  0,  -10,  -26,  -38
3806534, 1710337039, "2024/3/13 13:37:19",  8,  -63,  1006,  0,  0,  -1,  -10,  -26,  -37
3806734, 1710337040, "2024/3/13 13:37:20",  12,  -63,  1001,  0,  0,  0,  -10,  -27,  -36
3806934, 1710337040, "2024/3/13 13:37:20",  13,  -59,  1004,  0,  0,  -1,  -11,  -27,  -36
3807134, 1710337040, "2024/3/13 13:37:20",  -4,  -62,  998,  0,  -1,  0,  -10,  -28,  -37
3807334, 1710337040, "2024/3/13 13:37:20",  1,  -70,  1002,  0,  0,  0,  -11,  -26,  -36
3807534, 1710337040, "2024/3/13 13:37:20",  4,  -62,  1006,  0,  -1,  0,  -12,  -27,  -37
3807734, 1710337041, "2024/3/13 13:37:21",  9,  -57,  1007,  0,  0,  0,  -10,  -27,  -36
3807934, 1710337041, "2024/3/13 13:37:21",  9,  -63,  1003,  0,  0,  -1,  -11,  -28,  -35
3808134, 1710337041, "2024/3/13 13:37:21",  11,  -58,  1000,  0,  0,  -1,  -11,  -25,  -36
3808334, 1710337041, "2024/3/13 13:37:21",  0,  -55,  1002,  0,  0,  -1,  -9,  -26,  -37
3808534, 1710337041, "2024/3/13 13:37:21",  1,  -58,  1002,  0,  0,  -1,  -11,  -26,  -35
3808734, 1710337042, "2024/3/13 13:37:22",  2,  -60,  1006,  0,  -1,  -1,  -12,  -27,  -36
3808934, 1710337042, "2024/3/13 13:37:22",  1,  -63,  1000,  0,  0,  0,  -9,  -26,  -36
3809134, 1710337042, "2024/3/13 13:37:22",  6,  -59,  1006,  0,  0,  0,  -10,  -27,  -36
3809334, 1710337042, "2024/3/13 13:37:22",  6,  -61,  1003,  0,  0,  0,  -12,  -26,  -38
3809534, 1710337042, "2024/3/13 13:37:22",  7,  -51,  1012,  0,  0,  -1,  -12,  -28,  -38
3809734, 1710337043, "2024/3/13 13:37:23",  4,  -50,  993,  0,  0,  -1,  -11,  -26,  -36
3809934, 1710337043, "2024/3/13 13:37:23",  2,  -69,  1000,  0,  0,  -1,  -10,  -26,  -37
3810134, 1710337043, "2024/3/13 13:37:23",  4,  -57,  1001,  0,  0,  -1,  -12,  -29,  -35
3810334, 1710337043, "2024/3/13 13:37:23",  4,  -60,  1000,  0,  0,  -1,  -9,  -26,  -36
3810534, 1710337043, "2024/3/13 13:37:23",  11,  -73,  989,  1,  0,  -1,  -10,  -26,  -37
3810734, 1710337044, "2024/3/13 13:37:24",  -5,  -61,  1000,  0,  0,  0,  -12,  -26,  -36
3810934, 1710337044, "2024/3/13 13:37:24",  -4,  -54,  1004,  0,  0,  -1,  -12,  -26,  -37
3811134, 1710337044, "2024/3/13 13:37:24",  3,  -64,  1001,  0,  0,  -1,  -11,  -26,  -37
3811334, 1710337044, "2024/3/13 13:37:24",  12,  -67,  1001,  0,  0,  -1,  -11,  -27,  -35
3811534, 1710337044, "2024/3/13 13:37:24",  -1,  -60,  1002,  0,  0,  -1,  -11,  -26,  -36
3811734, 1710337045, "2024/3/13 13:37:25",  2,  -64,  1004,  0,  0,  0,  -9,  -26,  -37
3811934, 1710337045, "2024/3/13 13:37:25",  -8,  -80,  987,  1,  -1,  0,  -11,  -25,  -37
3812134, 1710337045, "2024/3/13 13:37:25",  4,  -52,  1000,  0,  0,  -1,  -9,  -25,  -36
3812334, 1710337045, "2024/3/13 13:37:25",  3,  -54,  997,  0,  0,  0,  -10,  -27,  -37
3812534, 1710337045, "2024/3/13 13:37:25",  3,  -64,  1001,  0,  0,  0,  -10,  -27,  -36
3812734, 1710337046, "2024/3/13 13:37:26",  -2,  -55,  1004,  0,  0,  -1,  -10,  -25,  -38
3812934, 1710337046, "2024/3/13 13:37:26",  9,  -62,  1003,  0,  0,  0,  -11,  -27,  -36
3813134, 1710337046, "2024/3/13 13:37:26",  6,  -61,  1007,  0,  0,  -1,  -9,  -26,  -36
3813334, 1710337046, "2024/3/13 13:37:26",  1,  -56,  1001,  0,  0,  -1,  -12,  -27,  -35
3813534, 1710337046, "2024/3/13 13:37:26",  7,  -57,  1005,  0,  0,  0,  -11,  -26,  -38
3813734, 1710337047, "2024/3/13 13:37:27",  3,  -58,  1001,  0,  0,  0,  -10,  -26,  -37
3813934, 1710337047, "2024/3/13 13:37:27",  6,  -58,  1004,  0,  0,  -1,  -11,  -25,  -37
3814134, 1710337047, "2024/3/13 13:37:27",  3,  -61,  999,  0,  0,  0,  -10,  -26,  -36
3814334, 1710337047, "2024/3/13 13:37:27",  2,  -58,  1005,  0,  0,  0,  -13,  -26,  -36
3814534, 1710337047, "2024/3/13 13:37:27",  9,  -49,  1002,  0,  0,  0,  -11,  -28,  -38
3814734, 1710337048, "2024/3/13 13:37:28",  5,  -53,  1000,  0,  0,  -1,  -10,  -26,  -38
3814934, 1710337048, "2024/3/13 13:37:28",  9,  -63,  1000,  0,  0,  -1,  -10,  -26,  -36
3815134, 1710337048, "2024/3/13 13:37:28",  8,  -63,  1006,  0,  -1,  -1,  -11,  -26,  -37
3815334, 1710337048, "2024/3/13 13:37:28",  5,  -60,  1005,  0,  0,  -1,  -12,  -28,  -36
3815534, 1710337048, "2024/3/13 13:37:28",  6,  -62,  1001,  0,  0,  0,  -11,  -26,  -37
3815734, 1710337049, "2024/3/13 13:37:29",  0,  -60,  1003,  0,  -1,  -1,  -11,  -28,  -36
3815934, 1710337049, "2024/3/13 13:37:29",  5,  -60,  1002,  0,  -1,  -1,  -10,  -27,  -36
3816134, 1710337049, "2024/3/13 13:37:29",  2,  -60,  1003,  0,  0,  0,  -11,  -27,  -37
3816334, 1710337049, "2024/3/13 13:37:29",  7,  -57,  1001,  0,  0,  0,  -12,  -26,  -36
3816534, 1710337049, "2024/3/13 13:37:29",  1,  -55,  1005,  0,  0,  -1,  -10,  -27,  -36
3816734, 1710337050, "2024/3/13 13:37:30",  5,  -52,  1004,  0,  0,  -1,  -10,  -27,  -36
3816934, 1710337050, "2024/3/13 13:37:30",  6,  -58,  1004,  0,  0,  0,  -10,  -26,  -37
3817134, 1710337050, "2024/3/13 13:37:30",  4,  -54,  999,  0,  0,  0,  -12,  -27,  -36
3817334, 1710337050, "2024/3/13 13:37:30",  -1,  -56,  1004,  0,  0,  -1,  -10,  -27,  -36
3817534, 1710337050, "2024/3/13 13:37:30",  5,  -58,  1001,  0,  0,  -1,  -11,  -26,  -39
3817734, 1710337051, "2024/3/13 13:37:31",  3,  -62,  1003,  0,  -1,  -1,  -10,  -27,  -36
3817934, 1710337051, "2024/3/13 13:37:31",  6,  -54,  1003,  0,  -1,  -1,  -11,  -26,  -36
3818134, 1710337051, "2024/3/13 13:37:31",  5,  -56,  1003,  0,  0,  -1,  -10,  -26,  -37
3818334, 1710337051, "2024/3/13 13:37:31",  6,  -59,  1005,  0,  -1,  0,  -9,  -26,  -36
3818534, 1710337051, "2024/3/13 13:37:31",  5,  -56,  1002,  0,  0,  -1,  -10,  -25,  -36
3818734, 1710337052, "2024/3/13 13:37:32",  9,  -63,  1001,  0,  0,  -1,  -10,  -27,  -35
3818934, 1710337052, "2024/3/13 13:37:32",  5,  -59,  1000,  0,  0,  -1,  -10,  -26,  -37
3819134, 1710337052, "2024/3/13 13:37:32",  7,  -56,  1000,  0,  0,  -1,  -10,  -26,  -37
3819334, 1710337052, "2024/3/13 13:37:32",  2,  -58,  1003,  0,  0,  -1,  -10,  -28,  -36
3819534, 1710337052, "2024/3/13 13:37:32",  2,  -57,  1001,  0,  0,  0,  -11,  -26,  -38
3819734, 1710337053, "2024/3/13 13:37:33",  -1,  -51,  1003,  0,  0,  0,  -12,  -26,  -36
3819934, 1710337053, "2024/3/13 13:37:33",  7,  -53,  1003,  0,  0,  0,  -9,  -26,  -36
3820134, 1710337053, "2024/3/13 13:37:33",  4,  -55,  1004,  0,  0,  -1,  -9,  -25,  -36
3820334, 1710337053, "2024/3/13 13:37:33",  7,  -55,  1004,  0,  -1,  -1,  -9,  -25,  -36
3820534, 1710337053, "2024/3/13 13:37:33",  12,  -63,  1003,  0,  0,  -1,  -10,  -27,  -39
3820734, 1710337054, "2024/3/13 13:37:34",  5,  -59,  1005,  0,  0,  -1,  -10,  -26,  -36
3820934, 1710337054, "2024/3/13 13:37:34",  7,  -52,  1002,  0,  -1,  -1,  -11,  -26,  -37
3821134, 1710337054, "2024/3/13 13:37:34",  6,  -61,  1001,  0,  0,  -1,  -11,  -25,  -37
3821334, 1710337054, "2024/3/13 13:37:34",  4,  -64,  1008,  0,  0,  0,  -12,  -27,  -36
3821534, 1710337054, "2024/3/13 13:37:34",  6,  -61,  1004,  0,  0,  -1,  -11,  -26,  -36
3821734, 1710337055, "2024/3/13 13:37:35",  8,  -61,  1002,  0,  0,  0,  -10,  -27,  -36
3821934, 1710337055, "2024/3/13 13:37:35",  3,  -59,  1002,  0,  0,  0,  -11,  -27,  -36
3822134, 1710337055, "2024/3/13 13:37:35",  8,  -51,  1008,  0,  0,  0,  -10,  -27,  -37
3822334, 1710337055, "2024/3/13 13:37:35",  6,  -58,  1006,  0,  0,  0,  -11,  -26,  -35
3822534, 1710337055, "2024/3/13 13:37:35",  5,  -61,  1004,  0,  0,  0,  -11,  -27,  -36
3822734, 1710337056, "2024/3/13 13:37:36",  6,  -63,  1005,  0,  0,  -1,  -11,  -28,  -39
3822934, 1710337056, "2024/3/13 13:37:36",  4,  -57,  1004,  0,  0,  -1,  -11,  -25,  -37
3823134, 1710337056, "2024/3/13 13:37:36",  8,  -60,  1001,  0,  0,  0,  -11,  -26,  -37
3823334, 1710337056, "2024/3/13 13:37:36",  6,  -62,  1003,  0,  0,  -1,  -11,  -27,  -37
3823534, 1710337056, "2024/3/13 13:37:36",  8,  -64,  1002,  0,  0,  0,  -10,  -26,  -37
3823734, 1710337057, "2024/3/13 13:37:37",  6,  -63,  1003,  0,  0,  -1,  -9,  -25,  -38
3823934, 1710337057, "2024/3/13 13:37:37",  7,  -61,  1001,  0,  0,  -1,  -10,  -27,  -37
3824134, 1710337057, "2024/3/13 13:37:37",  6,  -61,  1004,  0,  0,  0,  -10,  -28,  -37
3824334, 1710337057, "2024/3/13 13:37:37",  4,  -55,  1005,  0,  0,  0,  -10,  -26,  -36
3824534, 1710337057, "2024/3/13 13:37:37",  3,  -61,  1005,  0,  0,  -1,  -11,  -26,  -36
3824734, 1710337058, "2024/3/13 13:37:38",  3,  -60,  1002,  0,  0,  -1,  -10,  -26,  -36
3824934, 1710337058, "2024/3/13 13:37:38",  4,  -55,  1002,  0,  0,  -1,  -11,  -27,  -36
3825134, 1710337058, "2024/3/13 13:37:38",  3,  -61,  1001,  0,  0,  0,  -9,  -29,  -36
3825334, 1710337058, "2024/3/13 13:37:38",  7,  -62,  1005,  0,  0,  -1,  -11,  -27,  -37
3825534, 1710337058, "2024/3/13 13:37:38",  1,  -58,  1000,  0,  0,  -1,  -10,  -26,  -37
3825734, 1710337059, "2024/3/13 13:37:39",  4,  -58,  1001,  0,  0,  -1,  -10,  -27,  -37
3825934, 1710337059, "2024/3/13 13:37:39",  2,  -63,  1007,  0,  0,  0,  -11,  -27,  -37
3826134, 1710337059, "2024/3/13 13:37:39",  0,  -40,  994,  0,  0,  0,  -10,  -28,  -36
3826334, 1710337059, "2024/3/13 13:37:39",  -4,  -53,  1004,  0,  0,  0,  -10,  -27,  -37
3826534, 1710337059, "2024/3/13 13:37:39",  3,  -58,  1002,  0,  0,  -1,  -11,  -26,  -38
3826734, 1710337060, "2024/3/13 13:37:40",  4,  -71,  1006,  0,  0,  -1,  -11,  -26,  -37
3826934, 1710337060, "2024/3/13 13:37:40",  0,  -59,  1001,  0,  0,  -1,  -11,  -26,  -37
3827134, 1710337060, "2024/3/13 13:37:40",  1,  -63,  1003,  0,  -1,  -1,  -11,  -26,  -35
3827334, 1710337060, "2024/3/13 13:37:40",  4,  -64,  1004,  0,  0,  0,  -10,  -26,  -37
3827534, 1710337060, "2024/3/13 13:37:40",  6,  -61,  994,  0,  0,  -1,  -12,  -27,  -36
3827734, 1710337061, "2024/3/13 13:37:41",  11,  -53,  1003,  0,  0,  -1,  -11,  -27,  -36
3827934, 1710337061, "2024/3/13 13:37:41",  1,  -64,  1003,  0,  0,  -1,  -11,  -28,  -35
3828134, 1710337061, "2024/3/13 13:37:41",  3,  -62,  1002,  0,  0,  -1,  -12,  -25,  -37
3828334, 1710337061, "2024/3/13 13:37:41",  1,  -63,  1002,  1,  -1,  -1,  -11,  -26,  -36
3828534, 1710337061, "2024/3/13 13:37:41",  -3,  -72,  1002,  0,  0,  -1,  -8,  -27,  -38
3828734, 1710337062, "2024/3/13 13:37:42",  -2,  -65,  1000,  0,  0,  0,  -12,  -27,  -37
3828934, 1710337062, "2024/3/13 13:37:42",  8,  -60,  1001,  0,  0,  0,  -11,  -27,  -37
3829134, 1710337062, "2024/3/13 13:37:42",  12,  -58,  1003,  0,  0,  0,  -9,  -26,  -36
3829334, 1710337062, "2024/3/13 13:37:42",  11,  -53,  997,  0,  0,  -1,  -11,  -26,  -37
3829534, 1710337062, "2024/3/13 13:37:42",  9,  -60,  997,  0,  0,  0,  -11,  -25,  -37
3829734, 1710337063, "2024/3/13 13:37:43",  8,  -54,  1008,  0,  0,  0,  -10,  -27,  -37
3829934, 1710337063, "2024/3/13 13:37:43",  5,  -61,  1004,  0,  -1,  -1,  -11,  -26,  -36
3830134, 1710337063, "2024/3/13 13:37:43",  4,  -59,  1003,  0,  0,  -1,  -11,  -25,  -37
3830334, 1710337063, "2024/3/13 13:37:43",  7,  -64,  1003,  0,  0,  -1,  -12,  -26,  -35
3830534, 1710337063, "2024/3/13 13:37:43",  4,  -52,  1003,  0,  0,  0,  -11,  -26,  -37
3830734, 1710337064, "2024/3/13 13:37:44",  9,  -65,  1006,  0,  0,  0,  -10,  -28,  -36
3830934, 1710337064, "2024/3/13 13:37:44",  10,  -59,  1000,  0,  0,  -1,  -9,  -27,  -36
3831134, 1710337064, "2024/3/13 13:37:44",  7,  -50,  1004,  0,  0,  -1,  -11,  -26,  -37
3831334, 1710337064, "2024/3/13 13:37:44",  6,  -63,  1002,  0,  0,  -1,  -11,  -27,  -36
3831534, 1710337064, "2024/3/13 13:37:44",  9,  -61,  1011,  0,  0,  0,  -11,  -25,  -36
3831734, 1710337065, "2024/3/13 13:37:45",  8,  -54,  1004,  0,  0,  0,  -10,  -27,  -38
3831934, 1710337065, "2024/3/13 13:37:45",  1,  -69,  989,  0,  0,  -1,  -10,  -26,  -38
3832134, 1710337065, "2024/3/13 13:37:45",  13,  -69,  1000,  0,  -1,  -1,  -11,  -25,  -36
3832334, 1710337065, "2024/3/13 13:37:45",  10,  -62,  1004,  0,  0,  -1,  -10,  -26,  -35
3832534, 1710337065, "2024/3/13 13:37:45",  2,  -66,  1003,  0,  0,  -1,  -9,  -26,  -36
3832734, 1710337066, "2024/3/13 13:37:46",  3,  -56,  1008,  0,  0,  -1,  -11,  -26,  -36
3832934, 1710337066, "2024/3/13 13:37:46",  9,  -63,  1000,  0,  0,  -1,  -11,  -27,  -36
3833134, 1710337066, "2024/3/13 13:37:46",  5,  -61,  1004,  0,  0,  -1,  -11,  -25,  -37
3833334, 1710337066, "2024/3/13 13:37:46",  6,  -64,  999,  0,  0,  -1,  -11,  -26,  -37
3833534, 1710337066, "2024/3/13 13:37:46",  8,  -62,  1001,  0,  0,  0,  -11,  -26,  -36
3833734, 1710337067, "2024/3/13 13:37:47",  6,  -59,  999,  0,  0,  -1,  -10,  -27,  -35
3833934, 1710337067, "2024/3/13 13:37:47",  12,  -53,  997,  0,  0,  0,  -10,  -25,  -37
3834134, 1710337067, "2024/3/13 13:37:47",  15,  -69,  1002,  0,  0,  -1,  -11,  -27,  -35
3834334, 1710337067, "2024/3/13 13:37:47",  4,  -65,  1006,  0,  0,  -1,  -11,  -27,  -35
3834534, 1710337067, "2024/3/13 13:37:47",  8,  -45,  1003,  0,  0,  0,  -11,  -26,  -36
3834734, 1710337068, "2024/3/13 13:37:48",  5,  -70,  1015,  0,  0,  0,  -11,  -27,  -35
3834934, 1710337068, "2024/3/13 13:37:48",  12,  -66,  1005,  0,  0,  -1,  -9,  -27,  -37
3835134, 1710337068, "2024/3/13 13:37:48",  8,  -55,  1001,  0,  0,  -1,  -10,  -27,  -36
3835334, 1710337068, "2024/3/13 13:37:48",  4,  -59,  1008,  0,  -1,  -1,  -11,  -27,  -37
3835534, 1710337068, "2024/3/13 13:37:48",  7,  -51,  1015,  0,  0,  0,  -10,  -26,  -36
3835734, 1710337069, "2024/3/13 13:37:49",  -1,  -56,  992,  0,  -1,  0,  -11,  -26,  -37
3835934, 1710337069, "2024/3/13 13:37:49",  8,  -46,  1005,  1,  -1,  0,  -13,  -25,  -36
3836134, 1710337069, "2024/3/13 13:37:49",  0,  -60,  997,  1,  -1,  0,  -11,  -26,  -35
3836334, 1710337069, "2024/3/13 13:37:49",  4,  -54,  1009,  0,  0,  -1,  -11,  -27,  -36
3836534, 1710337069, "2024/3/13 13:37:49",  2,  -60,  1011,  0,  0,  0,  -11,  -26,  -38
3836734, 1710337070, "2024/3/13 13:37:50",  7,  -57,  1004,  0,  0,  -1,  -11,  -25,  -36
3836934, 1710337070, "2024/3/13 13:37:50",  10,  -67,  1003,  0,  -1,  -1,  -10,  -26,  -36
3837134, 1710337070, "2024/3/13 13:37:50",  -2,  -55,  1001,  0,  0,  -1,  -10,  -26,  -37
3837334, 1710337070, "2024/3/13 13:37:50",  2,  -51,  1006,  0,  0,  -1,  -11,  -26,  -35
3837534, 1710337070, "2024/3/13 13:37:50",  6,  -63,  1001,  0,  0,  -1,  -11,  -27,  -36
3837734, 1710337071, "2024/3/13 13:37:51",  2,  -60,  1000,  0,  0,  -1,  -11,  -27,  -35
3837934, 1710337071, "2024/3/13 13:37:51",  9,  -77,  1003,  0,  0,  -1,  -12,  -27,  -35
3838134, 1710337071, "2024/3/13 13:37:51",  14,  -66,  1004,  0,  0,  -1,  -11,  -25,  -38
3838334, 1710337071, "2024/3/13 13:37:51",  0,  -51,  1005,  0,  0,  -1,  -11,  -27,  -36
3838534, 1710337071, "2024/3/13 13:37:51",  8,  -57,  1007,  0,  0,  0,  -11,  -27,  -36
3838734, 1710337072, "2024/3/13 13:37:52",  0,  -63,  1000,  0,  0,  -1,  -11,  -26,  -36
3838934, 1710337072, "2024/3/13 13:37:52",  5,  -61,  1001,  0,  -1,  0,  -11,  -25,  -36
3839134, 1710337072, "2024/3/13 13:37:52",  10,  -63,  1004,  0,  0,  -1,  -12,  -26,  -37
3839334, 1710337072, "2024/3/13 13:37:52",  14,  -67,  1003,  0,  0,  0,  -11,  -27,  -37
3839534, 1710337072, "2024/3/13 13:37:52",  6,  -57,  1002,  0,  0,  -1,  -12,  -26,  -38
3839734, 1710337073, "2024/3/13 13:37:53",  4,  -55,  1003,  0,  0,  -1,  -11,  -26,  -37
3839934, 1710337073, "2024/3/13 13:37:53",  0,  -55,  1002,  0,  0,  -1,  -10,  -28,  -35
3840134, 1710337073, "2024/3/13 13:37:53",  6,  -63,  1004,  0,  0,  -1,  -12,  -26,  -36
3840334, 1710337073, "2024/3/13 13:37:53",  1,  -62,  1006,  0,  0,  0,  -11,  -27,  -36
3840534, 1710337073, "2024/3/13 13:37:53",  1,  -59,  1003,  0,  0,  -1,  -9,  -27,  -37
3840734, 1710337074, "2024/3/13 13:37:54",  12,  -61,  1005,  0,  0,  -1,  -10,  -28,  -37
3840934, 1710337074, "2024/3/13 13:37:54",  11,  -62,  1005,  0,  0,  -1,  -10,  -27,  -36
3841134, 1710337074, "2024/3/13 13:37:54",  28,  -75,  1038,  0,  1,  -1,  -10,  -27,  -36
3841334, 1710337074, "2024/3/13 13:37:54",  1,  -70,  995,  0,  0,  0,  -10,  -27,  -34
3841534, 1710337074, "2024/3/13 13:37:54",  3,  -64,  1004,  0,  0,  -1,  -11,  -26,  -37
3841734, 1710337075, "2024/3/13 13:37:55",  -2,  -56,  1002,  0,  -1,  0,  -12,  -27,  -36
3841934, 1710337075, "2024/3/13 13:37:55",  5,  -58,  1000,  0,  0,  -1,  -12,  -26,  -36
3842134, 1710337075, "2024/3/13 13:37:55",  7,  -59,  1002,  0,  0,  0,  -10,  -27,  -36
3842334, 1710337075, "2024/3/13 13:37:55",  1,  -58,  1002,  0,  -1,  -1,  -11,  -26,  -36
3842534, 1710337075, "2024/3/13 13:37:55",  9,  -63,  1002,  0,  0,  -1,  -11,  -27,  -36
3842734, 1710337076, "2024/3/13 13:37:56",  1,  -61,  998,  0,  0,  -1,  -12,  -27,  -37
3842934, 1710337076, "2024/3/13 13:37:56",  2,  -56,  1002,  0,  0,  0,  -10,  -26,  -37
3843134, 1710337076, "2024/3/13 13:37:56",  4,  -61,  1003,  0,  0,  -1,  -9,  -27,  -37
3843334, 1710337076, "2024/3/13 13:37:56",  3,  -59,  1005,  0,  0,  -1,  -10,  -26,  -36
3843534, 1710337076, "2024/3/13 13:37:56",  4,  -56,  1005,  0,  -1,  -1,  -11,  -27,  -37
3843734, 1710337077, "2024/3/13 13:37:57",  1,  -58,  1001,  0,  0,  0,  -11,  -27,  -37
3843934, 1710337077, "2024/3/13 13:37:57",  7,  -57,  1002,  0,  0,  -1,  -11,  -27,  -37
3844134, 1710337077, "2024/3/13 13:37:57",  6,  -64,  1002,  0,  0,  -1,  -10,  -27,  -36
3844334, 1710337077, "2024/3/13 13:37:57",  5,  -56,  1004,  0,  0,  -1,  -9,  -27,  -38
3844534, 1710337077, "2024/3/13 13:37:57",  1,  -58,  1004,  0,  0,  -1,  -11,  -26,  -35
3844734, 1710337078, "2024/3/13 13:37:58",  8,  -59,  1001,  0,  0,  -1,  -10,  -27,  -36
3844934, 1710337078, "2024/3/13 13:37:58",  0,  -57,  1007,  0,  0,  -1,  -11,  -25,  -37
3845134, 1710337078, "2024/3/13 13:37:58",  2,  -62,  1003,  0,  0,  -1,  -10,  -26,  -37
3845334, 1710337078, "2024/3/13 13:37:58",  7,  -58,  1007,  0,  -1,  -1,  -11,  -27,  -38
3845534, 1710337078, "2024/3/13 13:37:58",  2,  -60,  1003,  0,  -1,  0,  -12,  -27,  -37
3845734, 1710337079, "2024/3/13 13:37:59",  2,  -59,  1003,  0,  0,  -1,  -9,  -27,  -36
3845934, 1710337079, "2024/3/13 13:37:59",  5,  -57,  1002,  0,  0,  -1,  -11,  -27,  -38
3846134, 1710337079, "2024/3/13 13:37:59",  6,  -55,  1001,  0,  -1,  0,  -11,  -27,  -38
3846334, 1710337079, "2024/3/13 13:37:59",  3,  -59,  1003,  0,  0,  -1,  -11,  -26,  -37
3846534, 1710337079, "2024/3/13 13:37:59",  5,  -62,  1004,  0,  0,  -1,  -11,  -28,  -36
3846734, 1710337080, "2024/3/13 13:38:0",  4,  -62,  1005,  0,  0,  -1,  -10,  -26,  -36
3846934, 1710337080, "2024/3/13 13:38:0",  3,  -60,  1007,  0,  0,  -1,  -9,  -25,  -36
3847134, 1710337080, "2024/3/13 13:38:0",  2,  -59,  1001,  0,  0,  -1,  -12,  -27,  -37
3847334, 1710337080, "2024/3/13 13:38:0",  6,  -57,  1000,  0,  0,  0,  -11,  -28,  -37
3847534, 1710337080, "2024/3/13 13:38:0",  5,  -61,  1001,  0,  0,  -1,  -10,  -27,  -37
3847734, 1710337081, "2024/3/13 13:38:1",  4,  -57,  1003,  0,  0,  0,  -11,  -25,  -37
3847934, 1710337081, "2024/3/13 13:38:1",  4,  -53,  1004,  0,  0,  0,  -10,  -26,  -36
3848134, 1710337081, "2024/3/13 13:38:1",  2,  -58,  1004,  0,  0,  -1,  -11,  -26,  -37
3848334, 1710337081, "2024/3/13 13:38:1",  5,  -58,  1000,  0,  0,  0,  -11,  -26,  -38
3848534, 1710337081, "2024/3/13 13:38:1",  3,  -58,  1003,  0,  0,  -1,  -12,  -27,  -36
3848734, 1710337082, "2024/3/13 13:38:2",  3,  -59,  1003,  0,  0,  -1,  -10,  -28,  -38
3848934, 1710337082, "2024/3/13 13:38:2",  6,  -58,  1001,  0,  0,  -1,  -11,  -26,  -37
3849134, 1710337082, "2024/3/13 13:38:2",  0,  -60,  1001,  0,  0,  0,  -10,  -26,  -38
3849334, 1710337082, "2024/3/13 13:38:2",  11,  -53,  1002,  0,  0,  -1,  -10,  -27,  -36
3849534, 1710337082, "2024/3/13 13:38:2",  1,  -59,  1005,  0,  0,  0,  -10,  -26,  -37
3849734, 1710337083, "2024/3/13 13:38:3",  4,  -56,  1006,  0,  0,  -1,  -9,  -26,  -37
3849934, 1710337083, "2024/3/13 13:38:3",  2,  -60,  1003,  0,  0,  -1,  -12,  -25,  -36
3850134, 1710337083, "2024/3/13 13:38:3",  4,  -58,  1000,  0,  0,  -1,  -9,  -26,  -37
3850334, 1710337083, "2024/3/13 13:38:3",  4,  -63,  1005,  0,  0,  0,  -11,  -26,  -37
3850534, 1710337083, "2024/3/13 13:38:3",  2,  -57,  1003,  0,  0,  -1,  -10,  -25,  -36
3850734, 1710337084, "2024/3/13 13:38:4",  4,  -58,  1008,  0,  -1,  0,  -10,  -25,  -37
3850934, 1710337084, "2024/3/13 13:38:4",  1,  -58,  997,  0,  0,  -1,  -11,  -26,  -37
3851134, 1710337084, "2024/3/13 13:38:4",  1,  -58,  1005,  0,  0,  -1,  -10,  -26,  -39
3851334, 1710337084, "2024/3/13 13:38:4",  4,  -54,  999,  0,  0,  -1,  -8,  -28,  -36
3851534, 1710337084, "2024/3/13 13:38:4",  5,  -58,  1003,  0,  0,  0,  -10,  -27,  -37
3851734, 1710337085, "2024/3/13 13:38:5",  3,  -64,  1004,  0,  0,  -1,  -10,  -27,  -36
3851934, 1710337085, "2024/3/13 13:38:5",  4,  -60,  1006,  0,  0,  0,  -11,  -27,  -36
3852134, 1710337085, "2024/3/13 13:38:5",  3,  -62,  1003,  0,  0,  -1,  -10,  -26,  -37
3852334, 1710337085, "2024/3/13 13:38:5",  9,  -54,  1003,  0,  0,  -1,  -11,  -27,  -38
3852534, 1710337085, "2024/3/13 13:38:5",  1,  -56,  1003,  0,  0,  -1,  -10,  -25,  -36
3852734, 1710337086, "2024/3/13 13:38:6",  2,  -57,  1004,  0,  0,  -1,  -10,  -28,  -37
3852934, 1710337086, "2024/3/13 13:38:6",  7,  -58,  1001,  0,  0,  -1,  -9,  -25,  -37
3853134, 1710337086, "2024/3/13 13:38:6",  1,  -54,  1002,  0,  0,  0,  -10,  -25,  -37
3853334, 1710337086, "2024/3/13 13:38:6",  6,  -54,  1004,  0,  0,  0,  -12,  -26,  -37
3853534, 1710337086, "2024/3/13 13:38:6",  3,  -57,  1002,  0,  0,  0,  -10,  -26,  -36
3853734, 1710337087, "2024/3/13 13:38:7",  -4,  -62,  1006,  0,  0,  -1,  -12,  -27,  -37
3853934, 1710337087, "2024/3/13 13:38:7",  4,  -59,  1003,  0,  -1,  -1,  -11,  -25,  -35
3854134, 1710337087, "2024/3/13 13:38:7",  3,  -59,  1006,  0,  0,  0,  -10,  -26,  -37
3854334, 1710337087, "2024/3/13 13:38:7",  2,  -57,  1003,  0,  0,  0,  -11,  -26,  -37
3854534, 1710337087, "2024/3/13 13:38:7",  5,  -59,  1002,  0,  0,  0,  -11,  -26,  -37
3854734, 1710337088, "2024/3/13 13:38:8",  3,  -55,  999,  0,  0,  -1,  -11,  -27,  -37
3854934, 1710337088, "2024/3/13 13:38:8",  7,  -54,  1000,  0,  0,  -1,  -11,  -29,  -36
3855134, 1710337088, "2024/3/13 13:38:8",  6,  -57,  1003,  0,  0,  0,  -11,  -25,  -36
3855334, 1710337088, "2024/3/13 13:38:8",  5,  -61,  1003,  0,  0,  -1,  -9,  -25,  -36
3855534, 1710337088, "2024/3/13 13:38:8",  1,  -56,  1000,  0,  0,  -1,  -11,  -28,  -38
3855734, 1710337089, "2024/3/13 13:38:9",  11,  -58,  999,  0,  -1,  -1,  -10,  -27,  -37
3855934, 1710337089, "2024/3/13 13:38:9",  7,  -60,  1000,  0,  -1,  -1,  -12,  -25,  -37
3856134, 1710337089, "2024/3/13 13:38:9",  3,  -56,  1004,  0,  0,  0,  -9,  -26,  -36
3856334, 1710337089, "2024/3/13 13:38:9",  3,  -61,  1004,  0,  -1,  -1,  -11,  -27,  -36
3856534, 1710337089, "2024/3/13 13:38:9",  2,  -59,  1002,  0,  0,  0,  -13,  -25,  -37
3856734, 1710337090, "2024/3/13 13:38:10",  3,  -57,  1001,  0,  0,  -1,  -10,  -26,  -37
3856934, 1710337090, "2024/3/13 13:38:10",  7,  -60,  1003,  0,  0,  -1,  -11,  -28,  -37
3857134, 1710337090, "2024/3/13 13:38:10",  7,  -61,  1003,  0,  0,  0,  -11,  -25,  -37
3857334, 1710337090, "2024/3/13 13:38:10",  5,  -58,  1000,  0,  0,  0,  -10,  -28,  -36
3857534, 1710337090, "2024/3/13 13:38:10",  2,  -60,  1003,  0,  0,  -1,  -13,  -25,  -38
3857734, 1710337091, "2024/3/13 13:38:11",  7,  -59,  1002,  0,  -1,  -1,  -10,  -28,  -36
3857934, 1710337091, "2024/3/13 13:38:11",  2,  -59,  1002,  0,  0,  -1,  -11,  -27,  -37
3858134, 1710337091, "2024/3/13 13:38:11",  5,  -56,  1004,  0,  0,  0,  -11,  -27,  -36
3858334, 1710337091, "2024/3/13 13:38:11",  9,  -61,  1004,  0,  0,  -1,  -11,  -26,  -39
3858534, 1710337091, "2024/3/13 13:38:11",  1,  -62,  999,  0,  0,  0,  -9,  -27,  -38
3858734, 1710337092, "2024/3/13 13:38:12",  6,  -61,  1002,  0,  0,  -1,  -11,  -25,  -37
3858934, 1710337092, "2024/3/13 13:38:12",  7,  -61,  1000,  0,  0,  -1,  -11,  -26,  -37
3859134, 1710337092, "2024/3/13 13:38:12",  0,  -48,  1003,  0,  0,  -1,  -9,  -26,  -37
3859334, 1710337092, "2024/3/13 13:38:12",  4,  -54,  1006,  0,  0,  -1,  -10,  -28,  -37
3859534, 1710337092, "2024/3/13 13:38:12",  5,  -57,  1001,  0,  0,  -1,  -11,  -25,  -36
3859734, 1710337093, "2024/3/13 13:38:13",  8,  -64,  1005,  0,  0,  -1,  -11,  -25,  -38
3859934, 1710337093, "2024/3/13 13:38:13",  10,  -59,  1003,  0,  0,  0,  -10,  -25,  -38
3860134, 1710337093, "2024/3/13 13:38:13",  8,  -54,  1006,  0,  0,  0,  -9,  -28,  -37
3860334, 1710337093, "2024/3/13 13:38:13",  4,  -48,  1001,  0,  0,  -1,  -11,  -26,  -37
3860534, 1710337093, "2024/3/13 13:38:13",  6,  -60,  1004,  0,  -1,  0,  -11,  -26,  -38
3860734, 1710337094, "2024/3/13 13:38:14",  1,  -61,  1005,  0,  0,  -1,  -11,  -27,  -37
3860934, 1710337094, "2024/3/13 13:38:14",  5,  -58,  1002,  0,  0,  0,  -9,  -27,  -36
3861134, 1710337094, "2024/3/13 13:38:14",  5,  -58,  1002,  0,  0,  0,  -11,  -27,  -36
3861334, 1710337094, "2024/3/13 13:38:14",  6,  -52,  1002,  0,  0,  -1,  -11,  -27,  -38
3861534, 1710337094, "2024/3/13 13:38:14",  4,  -62,  1004,  0,  0,  0,  -11,  -25,  -37
3861734, 1710337095, "2024/3/13 13:38:15",  11,  -58,  1004,  0,  0,  -1,  -11,  -27,  -37
3861934, 1710337095, "2024/3/13 13:38:15",  8,  -57,  1003,  0,  0,  -1,  -11,  -27,  -36
3862134, 1710337095, "2024/3/13 13:38:15",  7,  -57,  1003,  0,  0,  -1,  -9,  -27,  -37
3862334, 1710337095, "2024/3/13 13:38:15",  6,  -56,  1003,  0,  0,  -1,  -11,  -26,  -39
3862534, 1710337095, "2024/3/13 13:38:15",  6,  -62,  1001,  0,  -1,  -1,  -11,  -27,  -37
3862734, 1710337096, "2024/3/13 13:38:16",  4,  -60,  1000,  0,  0,  -1,  -10,  -27,  -36
3862934, 1710337096, "2024/3/13 13:38:16",  9,  -58,  1000,  0,  0,  -1,  -12,  -26,  -36
3863134, 1710337096, "2024/3/13 13:38:16",  8,  -64,  1003,  0,  0,  -1,  -11,  -26,  -36
3863334, 1710337096, "2024/3/13 13:38:16",  6,  -62,  1004,  0,  0,  -1,  -10,  -27,  -38
3863534, 1710337096, "2024/3/13 13:38:16",  2,  -66,  1006,  0,  0,  -1,  -11,  -26,  -37
3863734, 1710337097, "2024/3/13 13:38:17",  0,  -59,  1003,  0,  0,  -1,  -9,  -26,  -36
3863934, 1710337097, "2024/3/13 13:38:17",  6,  -53,  1004,  0,  0,  -1,  -11,  -27,  -37
3864134, 1710337097, "2024/3/13 13:38:17",  2,  -60,  1005,  0,  -1,  -1,  -10,  -26,  -37
3864334, 1710337097, "2024/3/13 13:38:17",  9,  -54,  1004,  0,  0,  -1,  -11,  -27,  -37
3864534, 1710337097, "2024/3/13 13:38:17",  3,  -59,  1002,  0,  0,  -1,  -11,  -25,  -37
3864734, 1710337098, "2024/3/13 13:38:18",  7,  -60,  1002,  0,  0,  -1,  -10,  -26,  -36
3864934, 1710337098, "2024/3/13 13:38:18",  4,  -58,  1003,  0,  0,  -1,  -9,  -25,  -37
3865134, 1710337098, "2024/3/13 13:38:18",  6,  -58,  1005,  0,  0,  0,  -9,  -27,  -36
3865334, 1710337098, "2024/3/13 13:38:18",  6,  -64,  1000,  0,  0,  -1,  -11,  -26,  -36
3865534, 1710337098, "2024/3/13 13:38:18",  1,  -59,  1005,  0,  0,  -1,  -11,  -28,  -37
3865734, 1710337099, "2024/3/13 13:38:19",  4,  -54,  1004,  0,  0,  -1,  -11,  -27,  -37
3865934, 1710337099, "2024/3/13 13:38:19",  4,  -59,  1001,  0,  -1,  -1,  -11,  -26,  -36
3866134, 1710337099, "2024/3/13 13:38:19",  6,  -59,  1002,  0,  0,  -1,  -11,  -26,  -36
3866334, 1710337099, "2024/3/13 13:38:19",  5,  -55,  1005,  0,  0,  0,  -11,  -26,  -36
3866534, 1710337099, "2024/3/13 13:38:19",  7,  -61,  1006,  0,  0,  0,  -10,  -25,  -37
3866734, 1710337100, "2024/3/13 13:38:20",  6,  -57,  1003,  0,  0,  -1,  -11,  -27,  -38
3866934, 1710337100, "2024/3/13 13:38:20",  2,  -55,  1004,  0,  -1,  0,  -9,  -25,  -38
3867134, 1710337100, "2024/3/13 13:38:20",  10,  -57,  1001,  0,  -1,  -1,  -12,  -25,  -36
3867334, 1710337100, "2024/3/13 13:38:20",  0,  -56,  1005,  0,  0,  0,  -10,  -27,  -38
3867534, 1710337100, "2024/3/13 13:38:20",  3,  -55,  1001,  1,  0,  -1,  -12,  -26,  -36
3867734, 1710337101, "2024/3/13 13:38:21",  6,  -58,  1004,  0,  0,  0,  -12,  -25,  -37
3867934, 1710337101, "2024/3/13 13:38:21",  5,  -56,  1004,  0,  0,  0,  -11,  -26,  -37
3868134, 1710337101, "2024/3/13 13:38:21",  5,  -53,  1003,  0,  -1,  -1,  -10,  -26,  -36
3868334, 1710337101, "2024/3/13 13:38:21",  6,  -54,  1005,  0,  0,  0,  -11,  -28,  -36
3868534, 1710337101, "2024/3/13 13:38:21",  2,  -60,  1003,  0,  -1,  -1,  -9,  -25,  -36
3868734, 1710337102, "2024/3/13 13:38:22",  4,  -59,  1004,  0,  0,  -1,  -11,  -28,  -37
3868934, 1710337102, "2024/3/13 13:38:22",  6,  -58,  1004,  0,  0,  -1,  -11,  -26,  -38
3869134, 1710337102, "2024/3/13 13:38:22",  6,  -53,  1000,  0,  0,  0,  -11,  -28,  -36
3869334, 1710337102, "2024/3/13 13:38:22",  7,  -64,  1005,  0,  0,  -1,  -8,  -25,  -37
3869534, 1710337102, "2024/3/13 13:38:22",  8,  -56,  1005,  0,  -1,  0,  -10,  -27,  -37
3869734, 1710337103, "2024/3/13 13:38:23",  4,  -58,  1002,  0,  -1,  0,  -10,  -26,  -38
3869934, 1710337103, "2024/3/13 13:38:23",  1,  -57,  995,  1,  0,  -1,  -10,  -27,  -37
3870134, 1710337103, "2024/3/13 13:38:23",  0,  -61,  1002,  0,  0,  -1,  -10,  -24,  -37
3870334, 1710337103, "2024/3/13 13:38:23",  6,  -32,  1043,  0,  0,  0,  -9,  -27,  -36
3870534, 1710337103, "2024/3/13 13:38:23",  1,  -61,  1008,  0,  0,  -1,  -12,  -26,  -38
3870734, 1710337104, "2024/3/13 13:38:24",  1,  -58,  1006,  0,  0,  -1,  -10,  -26,  -38
3870934, 1710337104, "2024/3/13 13:38:24",  4,  -61,  1003,  0,  0,  0,  -9,  -26,  -36
3871134, 1710337104, "2024/3/13 13:38:24",  7,  -64,  1006,  0,  -1,  -1,  -11,  -27,  -38
3871334, 1710337104, "2024/3/13 13:38:24",  -6,  -51,  1014,  0,  -1,  0,  -10,  -26,  -36
3871534, 1710337104, "2024/3/13 13:38:24",  4,  -55,  1003,  0,  0,  0,  -11,  -25,  -36
3871734, 1710337105, "2024/3/13 13:38:25",  7,  -55,  1002,  0,  0,  0,  -11,  -27,  -37
3871934, 1710337105, "2024/3/13 13:38:25",  6,  -60,  1005,  0,  -1,  0,  -11,  -28,  -37
3872134, 1710337105, "2024/3/13 13:38:25",  5,  -58,  1004,  0,  0,  0,  -11,  -27,  -37
3872334, 1710337105, "2024/3/13 13:38:25",  8,  -57,  1002,  0,  -1,  0,  -10,  -27,  -36
3872534, 1710337105, "2024/3/13 13:38:25",  8,  -55,  1003,  0,  0,  -1,  -10,  -26,  -38
3872734, 1710337106, "2024/3/13 13:38:26",  -7,  -64,  997,  -1,  -2,  -1,  -11,  -25,  -38
3872934, 1710337106, "2024/3/13 13:38:26",  2,  -58,  1006,  0,  0,  0,  -9,  -26,  -37
3873134, 1710337106, "2024/3/13 13:38:26",  -2,  -45,  1000,  0,  -1,  0,  -9,  -26,  -35
3873334, 1710337106, "2024/3/13 13:38:26",  2,  -49,  1006,  0,  0,  -1,  -10,  -26,  -36
3873534, 1710337106, "2024/3/13 13:38:26",  4,  -59,  1002,  0,  0,  0,  -13,  -26,  -36
3873734, 1710337107, "2024/3/13 13:38:27",  7,  -66,  1001,  0,  0,  -1,  -12,  -26,  -38
3873934, 1710337107, "2024/3/13 13:38:27",  7,  -57,  1004,  0,  0,  0,  -10,  -28,  -37
3874134, 1710337107, "2024/3/13 13:38:27",  4,  -64,  1002,  0,  0,  -1,  -11,  -27,  -37
3874334, 1710337107, "2024/3/13 13:38:27",  6,  -58,  1003,  0,  0,  0,  -10,  -27,  -36
3874534, 1710337107, "2024/3/13 13:38:27",  2,  -55,  1003,  0,  0,  -1,  -12,  -28,  -37
3874734, 1710337108, "2024/3/13 13:38:28",  6,  -58,  1012,  0,  0,  0,  -10,  -27,  -36
3874934, 1710337108, "2024/3/13 13:38:28",  3,  -57,  1002,  0,  0,  0,  -9,  -27,  -37
3875134, 1710337108, "2024/3/13 13:38:28",  2,  -60,  1004,  0,  0,  -1,  -10,  -25,  -38
3875334, 1710337108, "2024/3/13 13:38:28",  7,  -58,  1006,  0,  0,  -1,  -11,  -27,  -39
3875534, 1710337108, "2024/3/13 13:38:28",  0,  -54,  1004,  0,  0,  -1,  -10,  -25,  -37
3875734, 1710337109, "2024/3/13 13:38:29",  4,  -55,  1000,  0,  0,  0,  -9,  -26,  -37
