millis,stamp,datetime,accX,accY,accZ,gyroX,gyroY,gyroZ,compX,compY,compZ
369106, 1710333040, "2024/3/13 12:30:40",  -1,  -58,  1005,  0,  0,  -1,  -12,  -26,  -35
369306, 1710333041, "2024/3/13 12:30:41",  6,  -52,  1001,  0,  0,  0,  -12,  -25,  -35
369506, 1710333041, "2024/3/13 12:30:41",  0,  -58,  1001,  0,  0,  0,  -11,  -26,  -34
369707, 1710333041, "2024/3/13 12:30:41",  2,  -63,  998,  0,  0,  -1,  -11,  -25,  -35
369907, 1710333041, "2024/3/13 12:30:41",  3,  -59,  1001,  0,  0,  0,  -9,  -25,  -34
370107, 1710333041, "2024/3/13 12:30:41",  2,  -61,  999,  0,  0,  -1,  -9,  -26,  -35
370307, 1710333042, "2024/3/13 12:30:42",  4,  -59,  1000,  0,  0,  0,  -11,  -25,  -35
370507, 1710333042, "2024/3/13 12:30:42",  7,  -59,  1000,  0,  0,  0,  -9,  -25,  -35
370707, 1710333042, "2024/3/13 12:30:42",  6,  -53,  1001,  0,  0,  -1,  -11,  -25,  -33
370907, 1710333042, "2024/3/13 12:30:42",  4,  -59,  1002,  0,  0,  -1,  -13,  -24,  -34
371107, 1710333042, "2024/3/13 12:30:42",  4,  -60,  1000,  0,  0,  -1,  -12,  -25,  -34
371307, 1710333043, "2024/3/13 12:30:43",  1,  -62,  999,  0,  0,  0,  -10,  -25,  -33
371507, 1710333043, "2024/3/13 12:30:43",  6,  -56,  1000,  0,  0,  0,  -10,  -26,  -34
371707, 1710333043, "2024/3/13 12:30:43",  0,  -59,  1004,  0,  0,  0,  -11,  -26,  -36
371907, 1710333043, "2024/3/13 12:30:43",  5,  -57,  1000,  0,  0,  0,  -12,  -25,  -34
372107, 1710333043, "2024/3/13 12:30:43",  4,  -63,  1003,  0,  0,  -1,  -11,  -24,  -36
372307, 1710333044, "2024/3/13 12:30:44",  3,  -56,  1000,  0,  0,  -1,  -10,  -27,  -34
372507, 1710333044, "2024/3/13 12:30:44",  7,  -59,  1002,  0,  0,  -1,  -11,  -27,  -36
372707, 1710333044, "2024/3/13 12:30:44",  3,  -63,  1003,  0,  0,  -1,  -11,  -25,  -34
372907, 1710333044, "2024/3/13 12:30:44",  4,  -56,  999,  0,  0,  0,  -12,  -25,  -36
373107, 1710333044, "2024/3/13 12:30:44",  6,  -54,  1003,  0,  0,  0,  -9,  -26,  -34
373307, 1710333045, "2024/3/13 12:30:45",  8,  -64,  1001,  0,  0,  0,  -10,  -25,  -34
373507, 1710333045, "2024/3/13 12:30:45",  5,  -57,  1002,  0,  0,  0,  -11,  -24,  -36
373707, 1710333045, "2024/3/13 12:30:45",  4,  -53,  997,  0,  0,  0,  -10,  -26,  -34
373907, 1710333045, "2024/3/13 12:30:45",  2,  -57,  1003,  0,  0,  0,  -10,  -27,  -35
374107, 1710333045, "2024/3/13 12:30:45",  1,  -52,  1000,  0,  0,  0,  -11,  -24,  -35
374307, 1710333046, "2024/3/13 12:30:46",  2,  -53,  1000,  0,  0,  0,  -11,  -26,  -33
374507, 1710333046, "2024/3/13 12:30:46",  1,  -52,  999,  0,  0,  0,  -10,  -24,  -34
374707, 1710333046, "2024/3/13 12:30:46",  1,  -55,  1004,  0,  0,  0,  -11,  -25,  -33
374907, 1710333046, "2024/3/13 12:30:46",  5,  -56,  1004,  0,  -1,  0,  -10,  -25,  -35
375107, 1710333046, "2024/3/13 12:30:46",  6,  -54,  1005,  0,  0,  0,  -11,  -25,  -36
375307, 1710333047, "2024/3/13 12:30:47",  2,  -54,  1004,  0,  0,  0,  -10,  -26,  -35
375507, 1710333047, "2024/3/13 12:30:47",  4,  -59,  1002,  0,  0,  -1,  -9,  -24,  -36
375707, 1710333047, "2024/3/13 12:30:47",  13,  -59,  1003,  0,  0,  0,  -10,  -26,  -33
375907, 1710333047, "2024/3/13 12:30:47",  4,  -61,  1002,  0,  0,  0,  -11,  -27,  -35
376107, 1710333047, "2024/3/13 12:30:47",  0,  -55,  1001,  0,  0,  -1,  -12,  -25,  -35
376307, 1710333048, "2024/3/13 12:30:48",  1,  -58,  1003,  0,  0,  0,  -11,  -24,  -34
376507, 1710333048, "2024/3/13 12:30:48",  4,  -58,  1004,  0,  0,  0,  -10,  -26,  -33
376707, 1710333048, "2024/3/13 12:30:48",  4,  -59,  998,  0,  0,  -1,  -11,  -25,  -32
376907, 1710333048, "2024/3/13 12:30:48",  5,  -61,  1003,  0,  0,  -1,  -12,  -25,  -33
377107, 1710333048, "2024/3/13 12:30:48",  3,  -54,  999,  0,  0,  0,  -11,  -26,  -35
377307, 1710333049, "2024/3/13 12:30:49",  2,  -57,  1006,  0,  0,  0,  -12,  -26,  -35
377507, 1710333049, "2024/3/13 12:30:49",  3,  -59,  1003,  0,  0,  -1,  -10,  -24,  -36
377707, 1710333049, "2024/3/13 12:30:49",  2,  -56,  1000,  0,  0,  0,  -11,  -25,  -35
377907, 1710333049, "2024/3/13 12:30:49",  4,  -58,  1002,  0,  0,  -1,  -10,  -25,  -34
378107, 1710333049, "2024/3/13 12:30:49",  -2,  -55,  1000,  0,  0,  -1,  -12,  -26,  -34
378307, 1710333050, "2024/3/13 12:30:50",  1,  -58,  1000,  0,  0,  -1,  -11,  -27,  -35
378507, 1710333050, "2024/3/13 12:30:50",  2,  -57,  1004,  0,  0,  0,  -10,  -26,  -34
378707, 1710333050, "2024/3/13 12:30:50",  3,  -57,  998,  0,  0,  -1,  -10,  -25,  -35
378907, 1710333050, "2024/3/13 12:30:50",  2,  -53,  1002,  0,  -1,  -1,  -13,  -24,  -35
379107, 1710333050, "2024/3/13 12:30:50",  3,  -58,  1002,  0,  0,  -1,  -10,  -26,  -33
379307, 1710333051, "2024/3/13 12:30:51",  4,  -59,  1001,  0,  0,  -1,  -11,  -25,  -34
379507, 1710333051, "2024/3/13 12:30:51",  3,  -62,  1001,  0,  0,  0,  -11,  -24,  -35
379707, 1710333051, "2024/3/13 12:30:51",  2,  -55,  1003,  0,  0,  0,  -11,  -25,  -35
379907, 1710333051, "2024/3/13 12:30:51",  1,  -57,  999,  0,  -1,  0,  -10,  -24,  -35
380107, 1710333051, "2024/3/13 12:30:51",  0,  -54,  1003,  0,  0,  -1,  -12,  -27,  -34
380307, 1710333052, "2024/3/13 12:30:52",  3,  -49,  1000,  0,  0,  0,  -11,  -26,  -34
380507, 1710333052, "2024/3/13 12:30:52",  5,  -58,  1002,  0,  0,  -1,  -10,  -27,  -34
380707, 1710333052, "2024/3/13 12:30:52",  5,  -64,  1005,  0,  0,  0,  -11,  -25,  -35
380907, 1710333052, "2024/3/13 12:30:52",  5,  -60,  1001,  0,  0,  -1,  -9,  -24,  -34
381107, 1710333052, "2024/3/13 12:30:52",  2,  -60,  1006,  0,  0,  0,  -11,  -26,  -36
381307, 1710333053, "2024/3/13 12:30:53",  3,  -52,  1002,  0,  -1,  0,  -12,  -26,  -36
381507, 1710333053, "2024/3/13 12:30:53",  -2,  -58,  1004,  0,  0,  0,  -10,  -26,  -35
381707, 1710333053, "2024/3/13 12:30:53",  6,  -58,  1001,  0,  0,  -1,  -11,  -25,  -34
381907, 1710333053, "2024/3/13 12:30:53",  3,  -61,  1002,  0,  0,  0,  -12,  -26,  -34
382107, 1710333053, "2024/3/13 12:30:53",  2,  -57,  1004,  0,  0,  0,  -11,  -27,  -34
382307, 1710333054, "2024/3/13 12:30:54",  6,  -61,  1002,  0,  0,  -1,  -12,  -25,  -36
382507, 1710333054, "2024/3/13 12:30:54",  7,  -54,  1002,  0,  0,  -1,  -11,  -25,  -36
382707, 1710333054, "2024/3/13 12:30:54",  2,  -60,  1003,  0,  0,  -1,  -12,  -25,  -34
382907, 1710333054, "2024/3/13 12:30:54",  6,  -58,  1001,  0,  0,  -1,  -11,  -25,  -34
383107, 1710333054, "2024/3/13 12:30:54",  6,  -63,  1000,  0,  0,  -1,  -10,  -26,  -34
383307, 1710333055, "2024/3/13 12:30:55",  6,  -56,  1000,  0,  -1,  0,  -12,  -25,  -36
383507, 1710333055, "2024/3/13 12:30:55",  1,  -58,  1000,  0,  0,  0,  -10,  -26,  -35
383707, 1710333055, "2024/3/13 12:30:55",  2,  -54,  1002,  0,  0,  0,  -11,  -26,  -34
383907, 1710333055, "2024/3/13 12:30:55",  3,  -56,  1000,  0,  0,  0,  -12,  -25,  -35
384107, 1710333055, "2024/3/13 12:30:55",  3,  -57,  1003,  0,  0,  -1,  -10,  -26,  -35
384307, 1710333056, "2024/3/13 12:30:56",  4,  -58,  1002,  0,  -1,  0,  -12,  -25,  -35
384507, 1710333056, "2024/3/13 12:30:56",  2,  -52,  996,  0,  0,  0,  -11,  -25,  -35
384707, 1710333056, "2024/3/13 12:30:56",  3,  -60,  1002,  0,  0,  -1,  -10,  -25,  -35
384907, 1710333056, "2024/3/13 12:30:56",  4,  -57,  1000,  0,  0,  -1,  -10,  -26,  -35
385107, 1710333056, "2024/3/13 12:30:56",  3,  -62,  1007,  0,  0,  0,  -11,  -26,  -35
385307, 1710333057, "2024/3/13 12:30:57",  5,  -61,  1004,  0,  -1,  -1,  -10,  -25,  -36
385507, 1710333057, "2024/3/13 12:30:57",  1,  -58,  1003,  0,  -1,  -1,  -12,  -27,  -36
385707, 1710333057, "2024/3/13 12:30:57",  0,  -56,  1001,  0,  0,  0,  -11,  -26,  -37
385907, 1710333057, "2024/3/13 12:30:57",  1,  -59,  1004,  0,  0,  0,  -10,  -26,  -36
386107, 1710333057, "2024/3/13 12:30:57",  4,  -59,  1002,  0,  0,  0,  -10,  -26,  -35
386307, 1710333058, "2024/3/13 12:30:58",  5,  -54,  1004,  0,  0,  0,  -12,  -24,  -34
386507, 1710333058, "2024/3/13 12:30:58",  4,  -59,  1002,  0,  0,  0,  -11,  -26,  -35
386707, 1710333058, "2024/3/13 12:30:58",  2,  -58,  1001,  0,  0,  0,  -13,  -25,  -34
386907, 1710333058, "2024/3/13 12:30:58",  2,  -60,  1004,  0,  0,  -1,  -9,  -26,  -34
387107, 1710333058, "2024/3/13 12:30:58",  3,  -57,  998,  0,  0,  0,  -12,  -24,  -35
387307, 1710333059, "2024/3/13 12:30:59",  6,  -55,  1002,  0,  0,  0,  -10,  -24,  -34
387507, 1710333059, "2024/3/13 12:30:59",  4,  -55,  1001,  0,  0,  0,  -10,  -26,  -35
387707, 1710333059, "2024/3/13 12:30:59",  5,  -62,  1002,  0,  0,  -1,  -11,  -25,  -33
387907, 1710333059, "2024/3/13 12:30:59",  3,  -64,  1003,  0,  0,  -1,  -10,  -25,  -36
388107, 1710333059, "2024/3/13 12:30:59",  6,  -57,  1003,  0,  0,  -1,  -10,  -27,  -34
388307, 1710333060, "2024/3/13 12:31:0",  4,  -58,  1000,  0,  0,  -1,  -10,  -24,  -34
388507, 1710333060, "2024/3/13 12:31:0",  3,  -61,  1005,  0,  -1,  0,  -12,  -26,  -35
388707, 1710333060, "2024/3/13 12:31:0",  0,  -56,  998,  0,  0,  0,  -11,  -26,  -34
388907, 1710333060, "2024/3/13 12:31:0",  2,  -65,  998,  0,  -1,  0,  -11,  -25,  -35
389107, 1710333060, "2024/3/13 12:31:0",  5,  -62,  1002,  0,  0,  0,  -11,  -26,  -36
389307, 1710333061, "2024/3/13 12:31:1",  3,  -57,  1000,  0,  0,  0,  -11,  -25,  -34
389507, 1710333061, "2024/3/13 12:31:1",  3,  -56,  1002,  0,  0,  -1,  -12,  -25,  -33
389707, 1710333061, "2024/3/13 12:31:1",  7,  -57,  1000,  0,  0,  -1,  -11,  -26,  -35
389907, 1710333061, "2024/3/13 12:31:1",  6,  -58,  1005,  0,  0,  0,  -12,  -24,  -36
390107, 1710333061, "2024/3/13 12:31:1",  1,  -59,  1000,  0,  0,  0,  -12,  -26,  -36
390307, 1710333062, "2024/3/13 12:31:2",  3,  -58,  1002,  0,  -1,  -1,  -12,  -26,  -36
390507, 1710333062, "2024/3/13 12:31:2",  3,  -60,  1001,  0,  0,  0,  -12,  -27,  -34
390707, 1710333062, "2024/3/13 12:31:2",  3,  -63,  1004,  0,  -1,  0,  -10,  -26,  -36
390907, 1710333062, "2024/3/13 12:31:2",  8,  -58,  1002,  0,  0,  -1,  -11,  -27,  -37
391107, 1710333062, "2024/3/13 12:31:2",  1,  -57,  1003,  0,  0,  0,  -11,  -25,  -35
391307, 1710333063, "2024/3/13 12:31:3",  6,  -59,  999,  0,  0,  0,  -10,  -27,  -34
391507, 1710333063, "2024/3/13 12:31:3",  3,  -59,  999,  0,  0,  0,  -11,  -26,  -35
391707, 1710333063, "2024/3/13 12:31:3",  1,  -53,  1000,  0,  0,  0,  -12,  -25,  -35
391907, 1710333063, "2024/3/13 12:31:3",  4,  -62,  1003,  0,  -1,  -1,  -11,  -26,  -36
392107, 1710333063, "2024/3/13 12:31:3",  5,  -54,  1000,  0,  0,  -1,  -11,  -27,  -34
392307, 1710333064, "2024/3/13 12:31:4",  2,  -59,  1002,  0,  0,  0,  -11,  -28,  -35
392507, 1710333064, "2024/3/13 12:31:4",  3,  -59,  1002,  0,  -1,  0,  -9,  -26,  -34
392707, 1710333064, "2024/3/13 12:31:4",  3,  -55,  1003,  0,  0,  -1,  -11,  -26,  -36
392907, 1710333064, "2024/3/13 12:31:4",  3,  -60,  1004,  0,  0,  0,  -10,  -26,  -34
393107, 1710333064, "2024/3/13 12:31:4",  5,  -61,  1001,  0,  0,  -1,  -10,  -27,  -34
393307, 1710333065, "2024/3/13 12:31:5",  1,  -62,  1000,  0,  0,  0,  -9,  -25,  -36
393507, 1710333065, "2024/3/13 12:31:5",  5,  -59,  1004,  0,  0,  0,  -12,  -25,  -36
393707, 1710333065, "2024/3/13 12:31:5",  0,  -61,  1000,  0,  0,  -1,  -10,  -25,  -36
393907, 1710333065, "2024/3/13 12:31:5",  4,  -60,  1004,  0,  0,  0,  -10,  -26,  -34
394107, 1710333065, "2024/3/13 12:31:5",  4,  -56,  1001,  0,  0,  0,  -11,  -24,  -34
394307, 1710333066, "2024/3/13 12:31:6",  6,  -55,  1001,  0,  0,  0,  -11,  -27,  -34
394507, 1710333066, "2024/3/13 12:31:6",  3,  -62,  1001,  0,  0,  -1,  -11,  -26,  -36
394707, 1710333066, "2024/3/13 12:31:6",  3,  -62,  1000,  0,  0,  -1,  -11,  -26,  -36
394907, 1710333066, "2024/3/13 12:31:6",  2,  -55,  1004,  0,  0,  0,  -11,  -25,  -35
395107, 1710333066, "2024/3/13 12:31:6",  3,  -55,  1003,  0,  0,  -1,  -10,  -25,  -36
395307, 1710333067, "2024/3/13 12:31:7",  7,  -48,  999,  0,  0,  0,  -11,  -26,  -33
395507, 1710333067, "2024/3/13 12:31:7",  6,  -58,  1002,  0,  0,  0,  -11,  -26,  -34
395707, 1710333067, "2024/3/13 12:31:7",  7,  -54,  1002,  0,  0,  0,  -9,  -25,  -35
395907, 1710333067, "2024/3/13 12:31:7",  4,  -55,  1001,  0,  0,  0,  -11,  -25,  -35
396107, 1710333067, "2024/3/13 12:31:7",  0,  -49,  1001,  0,  0,  0,  -9,  -26,  -35
396307, 1710333068, "2024/3/13 12:31:8",  3,  -57,  1001,  0,  0,  -1,  -10,  -25,  -35
396507, 1710333068, "2024/3/13 12:31:8",  3,  -56,  1000,  0,  0,  -1,  -8,  -26,  -36
396707, 1710333068, "2024/3/13 12:31:8",  4,  -58,  1000,  0,  0,  0,  -11,  -24,  -34
396907, 1710333068, "2024/3/13 12:31:8",  6,  -60,  1003,  0,  0,  0,  -11,  -25,  -33
397107, 1710333068, "2024/3/13 12:31:8",  5,  -61,  1000,  0,  0,  0,  -11,  -26,  -36
397307, 1710333069, "2024/3/13 12:31:9",  2,  -63,  1003,  0,  0,  -1,  -11,  -26,  -34
397507, 1710333069, "2024/3/13 12:31:9",  3,  -62,  1005,  0,  0,  -1,  -13,  -24,  -35
397707, 1710333069, "2024/3/13 12:31:9",  5,  -58,  999,  0,  0,  0,  -9,  -25,  -34
397907, 1710333069, "2024/3/13 12:31:9",  4,  -56,  1003,  0,  0,  -1,  -11,  -25,  -34
398107, 1710333069, "2024/3/13 12:31:9",  12,  -61,  1001,  0,  0,  0,  -12,  -25,  -36
398307, 1710333070, "2024/3/13 12:31:10",  12,  -54,  1002,  0,  0,  -1,  -12,  -26,  -34
398507, 1710333070, "2024/3/13 12:31:10",  -1,  -56,  1002,  0,  0,  -1,  -12,  -26,  -36
398707, 1710333070, "2024/3/13 12:31:10",  5,  -60,  1004,  0,  0,  -1,  -11,  -27,  -32
398907, 1710333070, "2024/3/13 12:31:10",  3,  -58,  999,  0,  0,  0,  -11,  -25,  -34
399107, 1710333070, "2024/3/13 12:31:10",  1,  -54,  1004,  0,  -1,  -1,  -10,  -25,  -34
399307, 1710333071, "2024/3/13 12:31:11",  3,  -60,  999,  0,  0,  -1,  -10,  -25,  -34
399507, 1710333071, "2024/3/13 12:31:11",  4,  -57,  1000,  0,  0,  0,  -13,  -26,  -34
399707, 1710333071, "2024/3/13 12:31:11",  5,  -52,  1001,  0,  0,  0,  -11,  -25,  -35
399907, 1710333071, "2024/3/13 12:31:11",  4,  -57,  998,  0,  0,  -1,  -11,  -25,  -35
400107, 1710333071, "2024/3/13 12:31:11",  5,  -56,  999,  0,  0,  -1,  -12,  -25,  -36
400307, 1710333072, "2024/3/13 12:31:12",  3,  -62,  1000,  0,  0,  -1,  -9,  -25,  -33
400507, 1710333072, "2024/3/13 12:31:12",  7,  -59,  999,  0,  0,  -1,  -11,  -25,  -34
400707, 1710333072, "2024/3/13 12:31:12",  1,  -60,  1000,  0,  0,  0,  -9,  -25,  -34
400907, 1710333072, "2024/3/13 12:31:12",  1,  -57,  1001,  0,  0,  0,  -10,  -24,  -36
401107, 1710333072, "2024/3/13 12:31:12",  8,  -55,  1005,  0,  0,  0,  -9,  -26,  -34
401307, 1710333073, "2024/3/13 12:31:13",  3,  -56,  1002,  0,  0,  -1,  -12,  -27,  -35
401507, 1710333073, "2024/3/13 12:31:13",  5,  -58,  1002,  0,  0,  -1,  -11,  -24,  -35
401707, 1710333073, "2024/3/13 12:31:13",  0,  -52,  1005,  0,  -1,  0,  -10,  -25,  -35
401907, 1710333073, "2024/3/13 12:31:13",  2,  -56,  1004,  0,  0,  0,  -12,  -26,  -35
402107, 1710333073, "2024/3/13 12:31:13",  2,  -56,  999,  0,  0,  0,  -11,  -25,  -36
402307, 1710333074, "2024/3/13 12:31:14",  2,  -64,  1004,  0,  0,  -1,  -12,  -26,  -34
402507, 1710333074, "2024/3/13 12:31:14",  0,  -54,  1001,  0,  0,  0,  -10,  -25,  -34
402707, 1710333074, "2024/3/13 12:31:14",  4,  -57,  1000,  0,  0,  -1,  -10,  -25,  -35
402907, 1710333074, "2024/3/13 12:31:14",  2,  -59,  1000,  0,  0,  0,  -12,  -24,  -35
403107, 1710333074, "2024/3/13 12:31:14",  9,  -60,  999,  0,  0,  -1,  -10,  -26,  -36
403307, 1710333075, "2024/3/13 12:31:15",  2,  -55,  1004,  0,  0,  0,  -11,  -25,  -34
403507, 1710333075, "2024/3/13 12:31:15",  5,  -55,  1002,  0,  0,  -1,  -12,  -26,  -36
403707, 1710333075, "2024/3/13 12:31:15",  7,  -56,  1004,  0,  0,  0,  -11,  -25,  -35
403907, 1710333075, "2024/3/13 12:31:15",  6,  -60,  1003,  0,  0,  -1,  -12,  -26,  -35
404107, 1710333075, "2024/3/13 12:31:15",  4,  -54,  1000,  0,  0,  -1,  -13,  -24,  -34
404307, 1710333076, "2024/3/13 12:31:16",  2,  -56,  1002,  0,  0,  0,  -11,  -25,  -35
404507, 1710333076, "2024/3/13 12:31:16",  2,  -60,  1004,  0,  0,  -1,  -12,  -24,  -34
404707, 1710333076, "2024/3/13 12:31:16",  7,  -60,  1000,  0,  0,  0,  -10,  -25,  -36
404907, 1710333076, "2024/3/13 12:31:16",  4,  -62,  1001,  0,  -1,  -1,  -12,  -26,  -34
405107, 1710333076, "2024/3/13 12:31:16",  2,  -61,  1004,  0,  0,  0,  -11,  -26,  -35
405307, 1710333077, "2024/3/13 12:31:17",  2,  -61,  1002,  0,  0,  0,  -10,  -25,  -35
405507, 1710333077, "2024/3/13 12:31:17",  6,  -58,  998,  0,  0,  0,  -10,  -25,  -35
405707, 1710333077, "2024/3/13 12:31:17",  0,  -60,  1002,  0,  0,  -1,  -11,  -25,  -36
405907, 1710333077, "2024/3/13 12:31:17",  2,  -62,  1003,  0,  0,  0,  -13,  -27,  -33
406107, 1710333077, "2024/3/13 12:31:17",  4,  -59,  996,  0,  0,  0,  -9,  -25,  -34
406307, 1710333078, "2024/3/13 12:31:18",  3,  -59,  1002,  0,  0,  0,  -10,  -28,  -34
406507, 1710333078, "2024/3/13 12:31:18",  2,  -59,  1001,  0,  0,  0,  -12,  -25,  -36
406707, 1710333078, "2024/3/13 12:31:18",  3,  -53,  1002,  0,  -1,  -1,  -11,  -26,  -36
406907, 1710333078, "2024/3/13 12:31:18",  3,  -54,  999,  0,  0,  0,  -12,  -26,  -36
407107, 1710333078, "2024/3/13 12:31:18",  0,  -57,  1001,  0,  0,  0,  -11,  -26,  -36
407307, 1710333079, "2024/3/13 12:31:19",  3,  -58,  1000,  0,  0,  0,  -11,  -25,  -36
407507, 1710333079, "2024/3/13 12:31:19",  2,  -58,  1001,  0,  0,  0,  -13,  -26,  -35
407707, 1710333079, "2024/3/13 12:31:19",  4,  -60,  1007,  0,  0,  0,  -11,  -28,  -36
407907, 1710333079, "2024/3/13 12:31:19",  0,  -52,  1008,  0,  -1,  -1,  -12,  -27,  -35
408107, 1710333079, "2024/3/13 12:31:19",  6,  -57,  1000,  0,  0,  -1,  -12,  -25,  -37
408307, 1710333080, "2024/3/13 12:31:20",  2,  -59,  1002,  0,  0,  -1,  -12,  -25,  -37
408507, 1710333080, "2024/3/13 12:31:20",  -3,  -55,  999,  0,  0,  -1,  -13,  -26,  -36
408707, 1710333080, "2024/3/13 12:31:20",  6,  -61,  1000,  0,  0,  0,  -12,  -25,  -36
408907, 1710333080, "2024/3/13 12:31:20",  3,  -62,  1002,  0,  0,  0,  -12,  -24,  -37
409107, 1710333080, "2024/3/13 12:31:20",  8,  -60,  1003,  0,  0,  0,  -13,  -27,  -37
409307, 1710333081, "2024/3/13 12:31:21",  1,  -55,  1007,  0,  0,  0,  -13,  -25,  -36
409507, 1710333081, "2024/3/13 12:31:21",  0,  -60,  1003,  0,  0,  -1,  -12,  -27,  -36
409707, 1710333081, "2024/3/13 12:31:21",  6,  -56,  1006,  0,  0,  0,  -11,  -26,  -37
409907, 1710333081, "2024/3/13 12:31:21",  7,  -67,  1001,  0,  0,  0,  -13,  -24,  -36
410107, 1710333081, "2024/3/13 12:31:21",  4,  -56,  1002,  0,  -1,  -1,  -12,  -24,  -36
410307, 1710333082, "2024/3/13 12:31:22",  -2,  -54,  1000,  0,  0,  -1,  -13,  -27,  -35
410507, 1710333082, "2024/3/13 12:31:22",  7,  -58,  999,  0,  0,  0,  -11,  -26,  -37
410707, 1710333082, "2024/3/13 12:31:22",  7,  -59,  1002,  0,  0,  0,  -12,  -25,  -37
410907, 1710333082, "2024/3/13 12:31:22",  2,  -58,  1004,  0,  0,  -1,  -11,  -26,  -37
411107, 1710333082, "2024/3/13 12:31:22",  4,  -58,  1002,  0,  0,  -1,  -12,  -25,  -36
411307, 1710333083, "2024/3/13 12:31:23",  3,  -58,  1000,  0,  0,  0,  -12,  -25,  -36
411507, 1710333083, "2024/3/13 12:31:23",  7,  -59,  999,  0,  0,  0,  -12,  -24,  -36
411707, 1710333083, "2024/3/13 12:31:23",  3,  -55,  1001,  0,  0,  0,  -12,  -26,  -37
411907, 1710333083, "2024/3/13 12:31:23",  5,  -58,  1002,  0,  -1,  0,  -12,  -26,  -37
412107, 1710333083, "2024/3/13 12:31:23",  4,  -61,  1000,  0,  0,  -1,  -12,  -27,  -37
412307, 1710333084, "2024/3/13 12:31:24",  4,  -59,  1005,  0,  0,  0,  -12,  -25,  -36
412507, 1710333084, "2024/3/13 12:31:24",  4,  -64,  1004,  0,  0,  0,  -12,  -27,  -37
412707, 1710333084, "2024/3/13 12:31:24",  6,  -56,  1005,  0,  0,  0,  -11,  -25,  -36
412907, 1710333084, "2024/3/13 12:31:24",  5,  -54,  1002,  0,  0,  -1,  -12,  -25,  -36
413107, 1710333084, "2024/3/13 12:31:24",  3,  -58,  1001,  0,  0,  -1,  -12,  -25,  -36
413307, 1710333085, "2024/3/13 12:31:25",  0,  -57,  1002,  0,  0,  0,  -11,  -27,  -36
413507, 1710333085, "2024/3/13 12:31:25",  6,  -60,  1001,  0,  0,  -1,  -12,  -24,  -37
413707, 1710333085, "2024/3/13 12:31:25",  2,  -58,  1001,  0,  0,  0,  -11,  -25,  -34
413907, 1710333085, "2024/3/13 12:31:25",  3,  -55,  1001,  0,  0,  0,  -11,  -25,  -35
414107, 1710333085, "2024/3/13 12:31:25",  3,  -58,  1007,  0,  0,  0,  -11,  -27,  -37
414307, 1710333086, "2024/3/13 12:31:26",  6,  -58,  1000,  0,  -1,  -1,  -11,  -24,  -36
414507, 1710333086, "2024/3/13 12:31:26",  0,  -54,  1005,  0,  0,  -1,  -11,  -26,  -34
414707, 1710333086, "2024/3/13 12:31:26",  6,  -62,  1005,  0,  0,  -1,  -13,  -26,  -37
414907, 1710333086, "2024/3/13 12:31:26",  7,  -57,  1001,  0,  -1,  -1,  -12,  -25,  -36
415107, 1710333086, "2024/3/13 12:31:26",  4,  -61,  1000,  0,  0,  -1,  -12,  -25,  -35
415307, 1710333087, "2024/3/13 12:31:27",  1,  -59,  999,  0,  -1,  -1,  -10,  -25,  -36
415507, 1710333087, "2024/3/13 12:31:27",  6,  -58,  1003,  0,  0,  0,  -12,  -26,  -36
415707, 1710333087, "2024/3/13 12:31:27",  0,  -64,  1004,  0,  0,  -1,  -13,  -27,  -36
415907, 1710333087, "2024/3/13 12:31:27",  0,  -59,  1004,  0,  0,  0,  -11,  -24,  -37
416107, 1710333087, "2024/3/13 12:31:27",  4,  -51,  1001,  0,  0,  -1,  -9,  -25,  -36
416307, 1710333088, "2024/3/13 12:31:28",  6,  -58,  997,  0,  0,  -1,  -11,  -25,  -36
416507, 1710333088, "2024/3/13 12:31:28",  3,  -64,  1001,  0,  0,  0,  -12,  -26,  -37
416707, 1710333088, "2024/3/13 12:31:28",  4,  -54,  1002,  0,  0,  0,  -12,  -25,  -37
416907, 1710333088, "2024/3/13 12:31:28",  6,  -59,  1003,  0,  0,  -1,  -11,  -25,  -38
417107, 1710333088, "2024/3/13 12:31:28",  8,  -61,  1001,  0,  0,  -1,  -10,  -26,  -37
417307, 1710333089, "2024/3/13 12:31:29",  5,  -60,  1005,  0,  -1,  0,  -11,  -27,  -36
417507, 1710333089, "2024/3/13 12:31:29",  5,  -54,  1002,  0,  0,  0,  -11,  -26,  -36
417707, 1710333089, "2024/3/13 12:31:29",  1,  -54,  1002,  0,  0,  -1,  -12,  -27,  -36
417907, 1710333089, "2024/3/13 12:31:29",  1,  -58,  1003,  0,  0,  0,  -12,  -25,  -35
418107, 1710333089, "2024/3/13 12:31:29",  4,  -53,  997,  0,  0,  -1,  -11,  -26,  -36
418307, 1710333090, "2024/3/13 12:31:30",  5,  -59,  1001,  0,  0,  -1,  -12,  -25,  -37
418507, 1710333090, "2024/3/13 12:31:30",  3,  -57,  1002,  0,  0,  0,  -11,  -25,  -36
418707, 1710333090, "2024/3/13 12:31:30",  4,  -61,  1004,  0,  0,  -1,  -11,  -26,  -36
418907, 1710333090, "2024/3/13 12:31:30",  6,  -57,  1001,  0,  0,  0,  -12,  -27,  -36
419107, 1710333090, "2024/3/13 12:31:30",  1,  -59,  1006,  0,  0,  0,  -10,  -26,  -37
419307, 1710333091, "2024/3/13 12:31:31",  1,  -58,  1003,  0,  0,  0,  -11,  -26,  -37
419507, 1710333091, "2024/3/13 12:31:31",  5,  -58,  1003,  0,  0,  -1,  -12,  -26,  -37
419707, 1710333091, "2024/3/13 12:31:31",  1,  -55,  1000,  0,  -1,  0,  -11,  -26,  -36
419907, 1710333091, "2024/3/13 12:31:31",  -1,  -62,  1000,  0,  0,  0,  -13,  -24,  -36
420107, 1710333091, "2024/3/13 12:31:31",  3,  -62,  1005,  0,  0,  -1,  -11,  -25,  -36
420307, 1710333092, "2024/3/13 12:31:32",  2,  -52,  1007,  0,  0,  0,  -11,  -26,  -35
420507, 1710333092, "2024/3/13 12:31:32",  6,  -59,  1007,  0,  0,  0,  -11,  -25,  -38
420707, 1710333092, "2024/3/13 12:31:32",  2,  -57,  999,  0,  -1,  0,  -14,  -27,  -36
420907, 1710333092, "2024/3/13 12:31:32",  5,  -60,  1002,  0,  0,  -1,  -11,  -25,  -36
421107, 1710333092, "2024/3/13 12:31:32",  8,  -61,  1003,  0,  0,  -1,  -11,  -27,  -36
421307, 1710333093, "2024/3/13 12:31:33",  1,  -55,  1002,  0,  0,  0,  -13,  -26,  -36
421507, 1710333093, "2024/3/13 12:31:33",  3,  -59,  1002,  0,  0,  -1,  -10,  -25,  -37
421707, 1710333093, "2024/3/13 12:31:33",  10,  -55,  999,  0,  0,  -1,  -10,  -27,  -36
421907, 1710333093, "2024/3/13 12:31:33",  5,  -59,  1003,  0,  0,  -1,  -11,  -26,  -35
422107, 1710333093, "2024/3/13 12:31:33",  5,  -55,  1002,  0,  0,  -1,  -13,  -25,  -38
422307, 1710333094, "2024/3/13 12:31:34",  7,  -59,  1003,  0,  0,  0,  -10,  -25,  -36
422507, 1710333094, "2024/3/13 12:31:34",  2,  -59,  1000,  0,  0,  -1,  -12,  -25,  -36
422707, 1710333094, "2024/3/13 12:31:34",  6,  -57,  1003,  0,  0,  -1,  -10,  -27,  -36
422907, 1710333094, "2024/3/13 12:31:34",  7,  -56,  1004,  0,  0,  -1,  -12,  -26,  -37
423107, 1710333094, "2024/3/13 12:31:34",  4,  -59,  1002,  0,  0,  -1,  -12,  -24,  -36
423307, 1710333095, "2024/3/13 12:31:35",  7,  -55,  1002,  0,  0,  0,  -12,  -26,  -36
423507, 1710333095, "2024/3/13 12:31:35",  4,  -56,  1000,  0,  0,  -1,  -12,  -25,  -36
423707, 1710333095, "2024/3/13 12:31:35",  4,  -57,  1005,  0,  0,  0,  -13,  -26,  -37
423907, 1710333095, "2024/3/13 12:31:35",  2,  -59,  1002,  0,  0,  -1,  -12,  -26,  -38
424107, 1710333095, "2024/3/13 12:31:35",  2,  -57,  1002,  0,  0,  0,  -10,  -25,  -37
424307, 1710333096, "2024/3/13 12:31:36",  4,  -60,  1001,  0,  0,  -1,  -10,  -25,  -37
424507, 1710333096, "2024/3/13 12:31:36",  4,  -60,  1005,  0,  0,  0,  -12,  -25,  -36
424707, 1710333096, "2024/3/13 12:31:36",  3,  -61,  1000,  0,  -1,  0,  -10,  -27,  -37
424907, 1710333096, "2024/3/13 12:31:36",  5,  -61,  999,  0,  -1,  -1,  -10,  -27,  -37
425107, 1710333096, "2024/3/13 12:31:36",  6,  -59,  1004,  0,  0,  0,  -12,  -25,  -36
425307, 1710333097, "2024/3/13 12:31:37",  1,  -59,  1002,  0,  0,  -1,  -11,  -26,  -36
425507, 1710333097, "2024/3/13 12:31:37",  2,  -58,  1005,  0,  0,  0,  -11,  -26,  -36
425707, 1710333097, "2024/3/13 12:31:37",  2,  -58,  1004,  0,  0,  0,  -12,  -25,  -36
425907, 1710333097, "2024/3/13 12:31:37",  4,  -57,  1004,  0,  0,  0,  -11,  -27,  -36
426107, 1710333097, "2024/3/13 12:31:37",  0,  -56,  1001,  0,  0,  0,  -12,  -27,  -36
426307, 1710333098, "2024/3/13 12:31:38",  3,  -60,  1002,  0,  0,  -1,  -11,  -26,  -38
426507, 1710333098, "2024/3/13 12:31:38",  5,  -56,  1002,  0,  0,  -1,  -12,  -25,  -36
426707, 1710333098, "2024/3/13 12:31:38",  2,  -61,  1000,  0,  0,  -1,  -11,  -26,  -37
426907, 1710333098, "2024/3/13 12:31:38",  2,  -58,  1003,  0,  0,  0,  -12,  -25,  -38
427107, 1710333098, "2024/3/13 12:31:38",  6,  -57,  1005,  0,  0,  0,  -10,  -26,  -36
427307, 1710333099, "2024/3/13 12:31:39",  4,  -55,  1001,  0,  0,  0,  -11,  -25,  -37
427507, 1710333099, "2024/3/13 12:31:39",  6,  -62,  1002,  0,  0,  -1,  -12,  -25,  -36
427707, 1710333099, "2024/3/13 12:31:39",  8,  -59,  1003,  0,  0,  0,  -12,  -26,  -36
427907, 1710333099, "2024/3/13 12:31:39",  1,  -55,  1002,  0,  0,  -1,  -11,  -25,  -36
428107, 1710333099, "2024/3/13 12:31:39",  4,  -51,  1004,  0,  0,  0,  -12,  -25,  -36
428307, 1710333100, "2024/3/13 12:31:40",  7,  -61,  1003,  0,  0,  0,  -12,  -25,  -37
428507, 1710333100, "2024/3/13 12:31:40",  4,  -59,  1002,  0,  0,  -1,  -12,  -26,  -36
428707, 1710333100, "2024/3/13 12:31:40",  0,  -57,  1005,  0,  0,  0,  -11,  -25,  -37
428907, 1710333100, "2024/3/13 12:31:40",  3,  -58,  1004,  0,  0,  -1,  -11,  -26,  -36
429107, 1710333100, "2024/3/13 12:31:40",  6,  -62,  997,  0,  -1,  -1,  -12,  -26,  -35
429307, 1710333101, "2024/3/13 12:31:41",  7,  -57,  1002,  0,  -1,  -1,  -12,  -24,  -37
429507, 1710333101, "2024/3/13 12:31:41",  6,  -59,  1002,  0,  0,  -1,  -11,  -26,  -36
429707, 1710333101, "2024/3/13 12:31:41",  4,  -55,  1003,  0,  0,  0,  -12,  -25,  -38
429907, 1710333101, "2024/3/13 12:31:41",  2,  -54,  1002,  0,  0,  -1,  -12,  -27,  -36
430107, 1710333101, "2024/3/13 12:31:41",  5,  -57,  1003,  0,  0,  0,  -12,  -26,  -37
430307, 1710333102, "2024/3/13 12:31:42",  6,  -62,  1000,  0,  0,  -1,  -11,  -26,  -36
430507, 1710333102, "2024/3/13 12:31:42",  7,  -61,  1000,  0,  0,  -1,  -11,  -25,  -38
430707, 1710333102, "2024/3/13 12:31:42",  6,  -60,  1004,  0,  0,  -1,  -12,  -25,  -36
430907, 1710333102, "2024/3/13 12:31:42",  0,  -54,  1004,  0,  0,  0,  -12,  -26,  -36
431107, 1710333102, "2024/3/13 12:31:42",  0,  -57,  1000,  0,  0,  -1,  -12,  -26,  -36
431307, 1710333103, "2024/3/13 12:31:43",  6,  -63,  1002,  0,  0,  -1,  -11,  -24,  -36
431507, 1710333103, "2024/3/13 12:31:43",  7,  -60,  1001,  0,  0,  0,  -10,  -26,  -36
431707, 1710333103, "2024/3/13 12:31:43",  0,  -61,  1001,  0,  0,  0,  -12,  -25,  -35
431907, 1710333103, "2024/3/13 12:31:43",  7,  -55,  999,  0,  0,  -1,  -10,  -28,  -37
432107, 1710333103, "2024/3/13 12:31:43",  2,  -58,  1003,  0,  -1,  0,  -11,  -27,  -36
432307, 1710333104, "2024/3/13 12:31:44",  6,  -54,  1001,  0,  0,  0,  -11,  -26,  -37
432507, 1710333104, "2024/3/13 12:31:44",  4,  -55,  1002,  0,  0,  0,  -11,  -26,  -37
432707, 1710333104, "2024/3/13 12:31:44",  10,  -50,  1000,  0,  0,  -1,  -11,  -25,  -34
432907, 1710333104, "2024/3/13 12:31:44",  4,  -56,  1005,  0,  -1,  0,  -11,  -25,  -36
433107, 1710333104, "2024/3/13 12:31:44",  5,  -64,  999,  0,  0,  0,  -12,  -27,  -35
433307, 1710333105, "2024/3/13 12:31:45",  3,  -59,  999,  0,  0,  0,  -12,  -27,  -36
433507, 1710333105, "2024/3/13 12:31:45",  6,  -57,  1003,  0,  0,  0,  -12,  -24,  -36
433707, 1710333105, "2024/3/13 12:31:45",  2,  -60,  1003,  0,  0,  0,  -11,  -26,  -37
433907, 1710333105, "2024/3/13 12:31:45",  0,  -58,  1000,  0,  0,  0,  -10,  -26,  -37
434107, 1710333105, "2024/3/13 12:31:45",  1,  -58,  1005,  0,  0,  0,  -11,  -27,  -36
434307, 1710333106, "2024/3/13 12:31:46",  3,  -57,  1006,  0,  0,  0,  -11,  -26,  -36
434507, 1710333106, "2024/3/13 12:31:46",  2,  -60,  1002,  0,  0,  -1,  -12,  -26,  -37
434707, 1710333106, "2024/3/13 12:31:46",  7,  -53,  1000,  0,  0,  0,  -11,  -25,  -36
434907, 1710333106, "2024/3/13 12:31:46",  6,  -59,  1003,  0,  0,  -1,  -10,  -26,  -35
435107, 1710333106, "2024/3/13 12:31:46",  6,  -58,  1002,  0,  0,  0,  -11,  -25,  -36
435307, 1710333107, "2024/3/13 12:31:47",  5,  -56,  1000,  0,  0,  0,  -12,  -27,  -36
435507, 1710333107, "2024/3/13 12:31:47",  10,  -58,  1003,  0,  0,  0,  -10,  -26,  -36
435707, 1710333107, "2024/3/13 12:31:47",  3,  -55,  1004,  0,  0,  0,  -11,  -25,  -36
435907, 1710333107, "2024/3/13 12:31:47",  1,  -57,  1001,  0,  0,  -1,  -12,  -27,  -36
436107, 1710333107, "2024/3/13 12:31:47",  3,  -60,  1002,  0,  0,  -1,  -12,  -26,  -37
436307, 1710333108, "2024/3/13 12:31:48",  3,  -56,  1004,  0,  0,  0,  -11,  -25,  -35
436507, 1710333108, "2024/3/13 12:31:48",  1,  -59,  1006,  0,  0,  0,  -11,  -25,  -35
436707, 1710333108, "2024/3/13 12:31:48",  9,  -60,  1001,  0,  0,  0,  -11,  -26,  -36
436907, 1710333108, "2024/3/13 12:31:48",  0,  -56,  999,  0,  0,  0,  -12,  -25,  -36
437107, 1710333108, "2024/3/13 12:31:48",  3,  -58,  1001,  0,  0,  0,  -10,  -25,  -36
437307, 1710333109, "2024/3/13 12:31:49",  7,  -53,  1000,  0,  0,  -1,  -11,  -27,  -36
437507, 1710333109, "2024/3/13 12:31:49",  8,  -60,  1000,  0,  0,  0,  -11,  -26,  -37
437707, 1710333109, "2024/3/13 12:31:49",  8,  -61,  1003,  0,  0,  -1,  -12,  -26,  -36
437907, 1710333109, "2024/3/13 12:31:49",  8,  -53,  1006,  0,  0,  -1,  -13,  -25,  -37
438107, 1710333109, "2024/3/13 12:31:49",  3,  -56,  1001,  0,  0,  0,  -11,  -26,  -37
438307, 1710333110, "2024/3/13 12:31:50",  2,  -54,  1004,  0,  0,  0,  -11,  -26,  -37
438507, 1710333110, "2024/3/13 12:31:50",  6,  -59,  999,  0,  0,  -1,  -11,  -26,  -36
438707, 1710333110, "2024/3/13 12:31:50",  7,  -62,  998,  0,  0,  -1,  -13,  -25,  -36
438907, 1710333110, "2024/3/13 12:31:50",  10,  -57,  1001,  0,  0,  -1,  -13,  -24,  -36
439107, 1710333110, "2024/3/13 12:31:50",  5,  -60,  1002,  0,  0,  0,  -12,  -26,  -36
439307, 1710333111, "2024/3/13 12:31:51",  7,  -58,  1002,  0,  0,  0,  -12,  -24,  -37
439507, 1710333111, "2024/3/13 12:31:51",  7,  -63,  1000,  0,  0,  0,  -11,  -24,  -37
439707, 1710333111, "2024/3/13 12:31:51",  5,  -55,  1002,  0,  0,  0,  -11,  -27,  -36
439907, 1710333111, "2024/3/13 12:31:51",  3,  -54,  1000,  0,  0,  -1,  -11,  -26,  -36
440107, 1710333111, "2024/3/13 12:31:51",  5,  -58,  1003,  0,  0,  -1,  -11,  -25,  -36
440307, 1710333112, "2024/3/13 12:31:52",  1,  -55,  1004,  0,  -1,  -1,  -11,  -24,  -37
440507, 1710333112, "2024/3/13 12:31:52",  1,  -59,  1004,  0,  0,  -1,  -11,  -28,  -36
440707, 1710333112, "2024/3/13 12:31:52",  1,  -63,  1003,  0,  -1,  -1,  -11,  -25,  -36
440907, 1710333112, "2024/3/13 12:31:52",  2,  -61,  1001,  0,  0,  0,  -12,  -27,  -34
441107, 1710333112, "2024/3/13 12:31:52",  6,  -59,  1003,  0,  0,  0,  -12,  -25,  -37
441307, 1710333113, "2024/3/13 12:31:53",  2,  -55,  1003,  0,  0,  -1,  -11,  -26,  -36
441507, 1710333113, "2024/3/13 12:31:53",  5,  -57,  1003,  0,  0,  0,  -11,  -26,  -37
441707, 1710333113, "2024/3/13 12:31:53",  3,  -61,  1004,  0,  0,  -1,  -11,  -25,  -37
441907, 1710333113, "2024/3/13 12:31:53",  0,  -58,  1006,  0,  0,  -1,  -10,  -27,  -37
442107, 1710333113, "2024/3/13 12:31:53",  8,  -60,  1000,  0,  0,  -1,  -12,  -26,  -37
442307, 1710333114, "2024/3/13 12:31:54",  2,  -57,  1001,  0,  0,  -1,  -11,  -24,  -38
442507, 1710333114, "2024/3/13 12:31:54",  4,  -54,  1003,  0,  0,  -1,  -12,  -25,  -37
442707, 1710333114, "2024/3/13 12:31:54",  6,  -59,  1005,  0,  0,  -1,  -11,  -25,  -37
442907, 1710333114, "2024/3/13 12:31:54",  3,  -61,  1003,  0,  0,  -1,  -12,  -26,  -36
443107, 1710333114, "2024/3/13 12:31:54",  4,  -55,  1000,  0,  0,  0,  -11,  -26,  -37
443307, 1710333115, "2024/3/13 12:31:55",  2,  -57,  1000,  0,  0,  0,  -11,  -27,  -37
443507, 1710333115, "2024/3/13 12:31:55",  5,  -58,  1004,  0,  -1,  0,  -12,  -25,  -37
443707, 1710333115, "2024/3/13 12:31:55",  2,  -59,  1002,  0,  0,  -1,  -11,  -26,  -36
443907, 1710333115, "2024/3/13 12:31:55",  2,  -55,  1001,  0,  0,  0,  -13,  -26,  -36
444107, 1710333115, "2024/3/13 12:31:55",  4,  -63,  1003,  0,  -1,  -1,  -11,  -26,  -36
444307, 1710333116, "2024/3/13 12:31:56",  1,  -62,  996,  0,  0,  0,  -12,  -25,  -36
444507, 1710333116, "2024/3/13 12:31:56",  6,  -59,  1005,  0,  0,  0,  -11,  -24,  -36
444707, 1710333116, "2024/3/13 12:31:56",  7,  -60,  1001,  0,  0,  0,  -12,  -27,  -36
444907, 1710333116, "2024/3/13 12:31:56",  1,  -57,  999,  0,  -1,  -1,  -12,  -25,  -37
445107, 1710333116, "2024/3/13 12:31:56",  4,  -53,  1001,  0,  0,  0,  -12,  -27,  -35
445307, 1710333117, "2024/3/13 12:31:57",  6,  -59,  1006,  0,  -1,  0,  -11,  -27,  -36
445507, 1710333117, "2024/3/13 12:31:57",  7,  -60,  1001,  0,  0,  0,  -11,  -25,  -37
445707, 1710333117, "2024/3/13 12:31:57",  4,  -60,  1002,  0,  -1,  0,  -13,  -25,  -36
445907, 1710333117, "2024/3/13 12:31:57",  9,  -60,  1000,  0,  0,  -1,  -13,  -27,  -36
446107, 1710333117, "2024/3/13 12:31:57",  3,  -61,  999,  0,  0,  -1,  -11,  -26,  -37
446307, 1710333118, "2024/3/13 12:31:58",  7,  -58,  1002,  0,  0,  0,  -12,  -25,  -36
446507, 1710333118, "2024/3/13 12:31:58",  6,  -60,  1003,  0,  0,  -1,  -11,  -26,  -36
446707, 1710333118, "2024/3/13 12:31:58",  4,  -59,  1004,  0,  0,  0,  -12,  -24,  -37
446907, 1710333118, "2024/3/13 12:31:58",  0,  -60,  1000,  0,  0,  0,  -11,  -25,  -36
447107, 1710333118, "2024/3/13 12:31:58",  4,  -60,  1000,  0,  0,  0,  -14,  -24,  -36
447307, 1710333119, "2024/3/13 12:31:59",  4,  -57,  1005,  0,  0,  0,  -12,  -25,  -36
447507, 1710333119, "2024/3/13 12:31:59",  2,  -59,  1005,  0,  -1,  0,  -12,  -26,  -36
447707, 1710333119, "2024/3/13 12:31:59",  3,  -59,  1003,  0,  0,  -1,  -12,  -26,  -36
447907, 1710333119, "2024/3/13 12:31:59",  3,  -59,  1001,  0,  0,  -1,  -13,  -26,  -37
448107, 1710333119, "2024/3/13 12:31:59",  7,  -66,  1002,  0,  0,  0,  -10,  -24,  -36
448307, 1710333120, "2024/3/13 12:32:0",  3,  -58,  1001,  0,  0,  0,  -12,  -26,  -36
448507, 1710333120, "2024/3/13 12:32:0",  3,  -61,  1001,  0,  0,  -1,  -12,  -26,  -36
448707, 1710333120, "2024/3/13 12:32:0",  4,  -58,  1003,  0,  -1,  -1,  -11,  -25,  -37
448907, 1710333120, "2024/3/13 12:32:0",  5,  -56,  1002,  0,  0,  -1,  -10,  -26,  -35
449107, 1710333120, "2024/3/13 12:32:0",  5,  -59,  1000,  0,  0,  -1,  -12,  -24,  -37
449307, 1710333121, "2024/3/13 12:32:1",  1,  -56,  1000,  0,  0,  -1,  -11,  -25,  -36
449507, 1710333121, "2024/3/13 12:32:1",  3,  -63,  1003,  0,  0,  0,  -10,  -26,  -35
449707, 1710333121, "2024/3/13 12:32:1",  5,  -58,  1001,  0,  0,  0,  -12,  -25,  -36
449907, 1710333121, "2024/3/13 12:32:1",  1,  -60,  1000,  0,  0,  0,  -12,  -25,  -38
450107, 1710333121, "2024/3/13 12:32:1",  1,  -59,  1002,  0,  0,  -1,  -12,  -25,  -37
450307, 1710333122, "2024/3/13 12:32:2",  2,  -58,  1006,  0,  0,  -1,  -11,  -26,  -36
450507, 1710333122, "2024/3/13 12:32:2",  7,  -52,  1001,  0,  0,  0,  -12,  -26,  -36
450707, 1710333122, "2024/3/13 12:32:2",  1,  -62,  1003,  0,  0,  -1,  -10,  -27,  -36
450907, 1710333122, "2024/3/13 12:32:2",  4,  -56,  999,  0,  0,  -1,  -11,  -24,  -37
451107, 1710333122, "2024/3/13 12:32:2",  4,  -55,  1001,  0,  0,  -1,  -12,  -26,  -36
451307, 1710333123, "2024/3/13 12:32:3",  4,  -63,  1005,  0,  0,  0,  -10,  -26,  -37
451507, 1710333123, "2024/3/13 12:32:3",  2,  -55,  1002,  1,  0,  0,  -12,  -26,  -35
451707, 1710333123, "2024/3/13 12:32:3",  7,  -60,  1003,  0,  0,  -1,  -11,  -25,  -36
451907, 1710333123, "2024/3/13 12:32:3",  -1,  -60,  1001,  0,  0,  0,  -12,  -25,  -35
452107, 1710333123, "2024/3/13 12:32:3",  3,  -55,  1002,  0,  0,  0,  -12,  -26,  -36
452307, 1710333124, "2024/3/13 12:32:4",  5,  -55,  1002,  0,  0,  0,  -11,  -25,  -37
452507, 1710333124, "2024/3/13 12:32:4",  7,  -57,  1003,  0,  0,  -1,  -10,  -26,  -36
452707, 1710333124, "2024/3/13 12:32:4",  4,  -56,  1001,  0,  0,  0,  -10,  -25,  -36
452907, 1710333124, "2024/3/13 12:32:4",  3,  -56,  1001,  0,  0,  0,  -9,  -25,  -37
453107, 1710333124, "2024/3/13 12:32:4",  5,  -62,  1004,  0,  0,  -1,  -11,  -26,  -35
453307, 1710333125, "2024/3/13 12:32:5",  3,  -58,  1000,  0,  0,  -1,  -12,  -25,  -37
453507, 1710333125, "2024/3/13 12:32:5",  6,  -58,  1006,  0,  -1,  0,  -12,  -25,  -35
453707, 1710333125, "2024/3/13 12:32:5",  6,  -57,  1001,  0,  0,  0,  -12,  -26,  -35
453907, 1710333125, "2024/3/13 12:32:5",  1,  -61,  1005,  0,  0,  -1,  -10,  -26,  -38
454107, 1710333125, "2024/3/13 12:32:5",  8,  -57,  1005,  0,  0,  0,  -13,  -26,  -35
454307, 1710333126, "2024/3/13 12:32:6",  3,  -56,  1002,  0,  0,  -1,  -12,  -26,  -38
454507, 1710333126, "2024/3/13 12:32:6",  8,  -55,  998,  0,  0,  -1,  -11,  -26,  -35
454707, 1710333126, "2024/3/13 12:32:6",  6,  -61,  1003,  0,  0,  -1,  -11,  -25,  -37
454907, 1710333126, "2024/3/13 12:32:6",  6,  -58,  1004,  0,  0,  -1,  -12,  -27,  -37
455107, 1710333126, "2024/3/13 12:32:6",  5,  -56,  999,  0,  0,  0,  -11,  -28,  -34
455307, 1710333127, "2024/3/13 12:32:7",  7,  -66,  1003,  0,  -1,  -1,  -11,  -25,  -38
455507, 1710333127, "2024/3/13 12:32:7",  6,  -57,  1005,  0,  -1,  0,  -12,  -25,  -39
455707, 1710333127, "2024/3/13 12:32:7",  -5,  -55,  1005,  0,  0,  -1,  -11,  -27,  -36
455907, 1710333127, "2024/3/13 12:32:7",  1,  -59,  1001,  0,  0,  -1,  -11,  -26,  -37
456107, 1710333127, "2024/3/13 12:32:7",  6,  -56,  1003,  0,  -1,  -1,  -11,  -25,  -36
456307, 1710333128, "2024/3/13 12:32:8",  8,  -57,  1000,  0,  0,  -1,  -12,  -26,  -38
456507, 1710333128, "2024/3/13 12:32:8",  5,  -53,  1002,  0,  0,  0,  -14,  -24,  -37
456707, 1710333128, "2024/3/13 12:32:8",  8,  -57,  1001,  0,  0,  -1,  -12,  -26,  -37
456907, 1710333128, "2024/3/13 12:32:8",  3,  -59,  1002,  0,  0,  -1,  -12,  -25,  -36
457107, 1710333128, "2024/3/13 12:32:8",  0,  -58,  1003,  0,  0,  0,  -11,  -25,  -37
457307, 1710333129, "2024/3/13 12:32:9",  5,  -56,  1000,  0,  0,  0,  -11,  -25,  -36
457507, 1710333129, "2024/3/13 12:32:9",  3,  -58,  1004,  0,  0,  0,  -12,  -25,  -37
457707, 1710333129, "2024/3/13 12:32:9",  1,  -62,  1002,  0,  0,  0,  -12,  -26,  -36
457907, 1710333129, "2024/3/13 12:32:9",  5,  -60,  1003,  0,  -1,  -1,  -12,  -27,  -37
458107, 1710333129, "2024/3/13 12:32:9",  5,  -54,  1000,  0,  -1,  0,  -9,  -27,  -36
458307, 1710333130, "2024/3/13 12:32:10",  4,  -51,  1006,  0,  0,  0,  -12,  -25,  -37
458507, 1710333130, "2024/3/13 12:32:10",  2,  -55,  1002,  0,  0,  -1,  -11,  -26,  -37
458707, 1710333130, "2024/3/13 12:32:10",  5,  -59,  1005,  0,  0,  -1,  -12,  -24,  -37
458907, 1710333130, "2024/3/13 12:32:10",  6,  -61,  1001,  0,  0,  0,  -12,  -26,  -36
459107, 1710333130, "2024/3/13 12:32:10",  2,  -63,  998,  0,  0,  -1,  -11,  -26,  -38
459307, 1710333131, "2024/3/13 12:32:11",  7,  -55,  1000,  0,  0,  -1,  -12,  -26,  -35
459507, 1710333131, "2024/3/13 12:32:11",  4,  -59,  1003,  0,  0,  -1,  -11,  -25,  -36
459707, 1710333131, "2024/3/13 12:32:11",  10,  -57,  1003,  0,  0,  0,  -12,  -24,  -37
459907, 1710333131, "2024/3/13 12:32:11",  5,  -55,  1003,  0,  0,  -1,  -12,  -25,  -34
460107, 1710333131, "2024/3/13 12:32:11",  7,  -61,  1003,  0,  0,  -1,  -10,  -25,  -36
460307, 1710333132, "2024/3/13 12:32:12",  0,  -55,  1003,  0,  0,  0,  -10,  -27,  -36
460507, 1710333132, "2024/3/13 12:32:12",  5,  -67,  1003,  0,  0,  -1,  -11,  -26,  -36
460707, 1710333132, "2024/3/13 12:32:12",  5,  -55,  1003,  0,  0,  0,  -11,  -25,  -36
460907, 1710333132, "2024/3/13 12:32:12",  7,  -65,  1002,  0,  -1,  -1,  -10,  -26,  -37
461107, 1710333132, "2024/3/13 12:32:12",  1,  -57,  1003,  0,  0,  0,  -11,  -25,  -36
461307, 1710333133, "2024/3/13 12:32:13",  5,  -53,  1000,  0,  0,  0,  -12,  -25,  -37
461507, 1710333133, "2024/3/13 12:32:13",  6,  -56,  1002,  0,  0,  -1,  -12,  -27,  -36
461707, 1710333133, "2024/3/13 12:32:13",  2,  -56,  1002,  0,  0,  -1,  -11,  -27,  -36
461907, 1710333133, "2024/3/13 12:32:13",  8,  -56,  1003,  0,  0,  0,  -12,  -25,  -36
462107, 1710333133, "2024/3/13 12:32:13",  6,  -56,  1004,  0,  -1,  -1,  -12,  -26,  -37
462307, 1710333134, "2024/3/13 12:32:14",  7,  -58,  1004,  0,  0,  -1,  -11,  -26,  -36
462507, 1710333134, "2024/3/13 12:32:14",  7,  -55,  1000,  0,  0,  -1,  -11,  -26,  -36
462707, 1710333134, "2024/3/13 12:32:14",  1,  -53,  1000,  0,  0,  -1,  -12,  -25,  -36
462907, 1710333134, "2024/3/13 12:32:14",  6,  -63,  1003,  0,  0,  -1,  -10,  -25,  -36
463107, 1710333134, "2024/3/13 12:32:14",  4,  -59,  1002,  0,  -1,  -1,  -11,  -27,  -37
463307, 1710333135, "2024/3/13 12:32:15",  7,  -48,  1002,  0,  0,  0,  -12,  -27,  -36
463507, 1710333135, "2024/3/13 12:32:15",  7,  -58,  1005,  0,  0,  -1,  -11,  -26,  -36
463707, 1710333135, "2024/3/13 12:32:15",  3,  -63,  1003,  0,  0,  0,  -11,  -27,  -36
463907, 1710333135, "2024/3/13 12:32:15",  6,  -54,  1004,  0,  0,  -1,  -12,  -25,  -36
464107, 1710333135, "2024/3/13 12:32:15",  5,  -57,  1001,  0,  0,  0,  -12,  -26,  -38
464307, 1710333136, "2024/3/13 12:32:16",  5,  -58,  1003,  0,  0,  0,  -12,  -26,  -36
464507, 1710333136, "2024/3/13 12:32:16",  1,  -54,  1001,  0,  0,  0,  -12,  -28,  -37
464707, 1710333136, "2024/3/13 12:32:16",  2,  -60,  1001,  0,  -1,  0,  -11,  -24,  -37
464907, 1710333136, "2024/3/13 12:32:16",  5,  -55,  1005,  0,  0,  0,  -11,  -25,  -38
465107, 1710333136, "2024/3/13 12:32:16",  7,  -62,  1003,  0,  -1,  -1,  -12,  -25,  -35
465307, 1710333137, "2024/3/13 12:32:17",  4,  -62,  1003,  0,  0,  0,  -12,  -26,  -37
465507, 1710333137, "2024/3/13 12:32:17",  5,  -59,  1002,  0,  0,  0,  -10,  -25,  -35
465707, 1710333137, "2024/3/13 12:32:17",  7,  -67,  1001,  0,  0,  0,  -12,  -25,  -37
465907, 1710333137, "2024/3/13 12:32:17",  6,  -56,  1006,  0,  0,  -1,  -11,  -26,  -38
466107, 1710333137, "2024/3/13 12:32:17",  7,  -55,  1003,  0,  0,  0,  -12,  -26,  -36
466307, 1710333138, "2024/3/13 12:32:18",  2,  -59,  1001,  0,  0,  0,  -10,  -26,  -37
466507, 1710333138, "2024/3/13 12:32:18",  3,  -57,  1003,  0,  0,  -1,  -11,  -27,  -35
466707, 1710333138, "2024/3/13 12:32:18",  6,  -60,  1000,  0,  0,  -1,  -11,  -25,  -37
466907, 1710333138, "2024/3/13 12:32:18",  4,  -64,  999,  0,  0,  -1,  -11,  -26,  -36
467107, 1710333138, "2024/3/13 12:32:18",  4,  -61,  1002,  0,  0,  0,  -12,  -26,  -36
467307, 1710333139, "2024/3/13 12:32:19",  3,  -59,  1004,  0,  0,  -1,  -12,  -25,  -36
467507, 1710333139, "2024/3/13 12:32:19",  3,  -59,  1002,  0,  0,  0,  -11,  -27,  -36
467707, 1710333139, "2024/3/13 12:32:19",  6,  -56,  1005,  0,  -1,  0,  -12,  -27,  -35
467907, 1710333139, "2024/3/13 12:32:19",  1,  -63,  1001,  0,  0,  0,  -11,  -25,  -37
468107, 1710333139, "2024/3/13 12:32:19",  3,  -54,  1004,  0,  0,  0,  -12,  -26,  -37
468307, 1710333140, "2024/3/13 12:32:20",  5,  -60,  1006,  0,  0,  0,  -12,  -25,  -36
468507, 1710333140, "2024/3/13 12:32:20",  6,  -58,  1000,  0,  0,  0,  -11,  -27,  -39
468707, 1710333140, "2024/3/13 12:32:20",  11,  -55,  1002,  0,  0,  -1,  -12,  -27,  -37
468907, 1710333140, "2024/3/13 12:32:20",  3,  -62,  1002,  0,  0,  0,  -12,  -26,  -36
469107, 1710333140, "2024/3/13 12:32:20",  6,  -63,  1003,  0,  0,  -1,  -11,  -25,  -36
469307, 1710333141, "2024/3/13 12:32:21",  4,  -53,  1003,  0,  0,  -1,  -11,  -25,  -38
469507, 1710333141, "2024/3/13 12:32:21",  3,  -57,  1002,  0,  0,  -1,  -12,  -26,  -36
469707, 1710333141, "2024/3/13 12:32:21",  -5,  -61,  996,  0,  0,  0,  -12,  -27,  -36
469907, 1710333141, "2024/3/13 12:32:21",  5,  -57,  1004,  0,  0,  0,  -12,  -27,  -35
470107, 1710333141, "2024/3/13 12:32:21",  3,  -55,  1003,  0,  0,  -1,  -13,  -26,  -36
470307, 1710333142, "2024/3/13 12:32:22",  1,  -62,  1002,  0,  -1,  -1,  -11,  -25,  -36
470507, 1710333142, "2024/3/13 12:32:22",  7,  -54,  1001,  0,  0,  0,  -11,  -27,  -36
470707, 1710333142, "2024/3/13 12:32:22",  6,  -56,  1001,  0,  0,  0,  -13,  -25,  -36
470907, 1710333142, "2024/3/13 12:32:22",  2,  -58,  1002,  0,  0,  -1,  -11,  -26,  -35
471107, 1710333142, "2024/3/13 12:32:22",  8,  -61,  1000,  0,  0,  0,  -12,  -27,  -36
471307, 1710333143, "2024/3/13 12:32:23",  3,  -63,  998,  0,  -1,  0,  -11,  -27,  -37
471507, 1710333143, "2024/3/13 12:32:23",  4,  -60,  1007,  0,  0,  0,  -12,  -24,  -36
471707, 1710333143, "2024/3/13 12:32:23",  2,  -58,  1000,  0,  0,  -1,  -11,  -25,  -36
471907, 1710333143, "2024/3/13 12:32:23",  2,  -60,  1001,  0,  0,  -1,  -11,  -27,  -37
472107, 1710333143, "2024/3/13 12:32:23",  5,  -59,  1001,  0,  0,  0,  -12,  -25,  -37
472307, 1710333144, "2024/3/13 12:32:24",  2,  -60,  1000,  0,  0,  0,  -10,  -27,  -36
472507, 1710333144, "2024/3/13 12:32:24",  3,  -62,  1006,  0,  -1,  0,  -12,  -26,  -36
472707, 1710333144, "2024/3/13 12:32:24",  0,  -60,  997,  0,  0,  -1,  -13,  -26,  -36
472907, 1710333144, "2024/3/13 12:32:24",  5,  -59,  1004,  0,  0,  0,  -12,  -27,  -36
473107, 1710333144, "2024/3/13 12:32:24",  7,  -59,  1001,  0,  0,  0,  -11,  -26,  -36
473307, 1710333145, "2024/3/13 12:32:25",  5,  -60,  1003,  0,  -1,  -1,  -11,  -26,  -36
473507, 1710333145, "2024/3/13 12:32:25",  8,  -65,  1005,  0,  0,  -1,  -12,  -26,  -36
473707, 1710333145, "2024/3/13 12:32:25",  1,  -59,  1001,  0,  0,  0,  -12,  -25,  -36
473907, 1710333145, "2024/3/13 12:32:25",  7,  -60,  1004,  0,  -1,  0,  -13,  -25,  -34
474107, 1710333145, "2024/3/13 12:32:25",  5,  -54,  1003,  0,  0,  0,  -12,  -25,  -36
474307, 1710333146, "2024/3/13 12:32:26",  7,  -60,  1007,  0,  0,  0,  -11,  -27,  -36
474507, 1710333146, "2024/3/13 12:32:26",  4,  -54,  1004,  0,  0,  -1,  -12,  -26,  -37
474707, 1710333146, "2024/3/13 12:32:26",  6,  -56,  1003,  0,  0,  -1,  -10,  -25,  -36
474907, 1710333146, "2024/3/13 12:32:26",  3,  -60,  1002,  0,  0,  -1,  -10,  -26,  -36
475107, 1710333146, "2024/3/13 12:32:26",  6,  -56,  1000,  0,  0,  -1,  -12,  -24,  -36
475307, 1710333147, "2024/3/13 12:32:27",  9,  -62,  1003,  0,  0,  -1,  -14,  -27,  -36
475507, 1710333147, "2024/3/13 12:32:27",  6,  -63,  1004,  0,  0,  0,  -12,  -26,  -36
475707, 1710333147, "2024/3/13 12:32:27",  4,  -56,  1005,  0,  0,  0,  -10,  -27,  -36
475907, 1710333147, "2024/3/13 12:32:27",  1,  -61,  1003,  0,  0,  0,  -11,  -25,  -36
476107, 1710333147, "2024/3/13 12:32:27",  8,  -61,  1002,  0,  0,  0,  -12,  -26,  -36
476307, 1710333148, "2024/3/13 12:32:28",  6,  -60,  1004,  0,  0,  -1,  -13,  -25,  -36
476507, 1710333148, "2024/3/13 12:32:28",  4,  -57,  1000,  0,  0,  -1,  -10,  -25,  -36
476707, 1710333148, "2024/3/13 12:32:28",  -1,  -57,  1006,  0,  0,  0,  -11,  -26,  -38
476907, 1710333148, "2024/3/13 12:32:28",  4,  -60,  1005,  0,  0,  -1,  -12,  -26,  -36
477107, 1710333148, "2024/3/13 12:32:28",  6,  -63,  1005,  0,  0,  -1,  -11,  -24,  -37
477307, 1710333149, "2024/3/13 12:32:29",  5,  -53,  1002,  0,  -1,  0,  -11,  -25,  -36
477507, 1710333149, "2024/3/13 12:32:29",  8,  -57,  1003,  0,  0,  -1,  -12,  -26,  -37
477707, 1710333149, "2024/3/13 12:32:29",  4,  -57,  1000,  0,  0,  -1,  -11,  -27,  -37
477907, 1710333149, "2024/3/13 12:32:29",  3,  -56,  1001,  0,  0,  -1,  -11,  -26,  -36
478107, 1710333149, "2024/3/13 12:32:29",  3,  -59,  1001,  0,  0,  0,  -11,  -25,  -34
478307, 1710333150, "2024/3/13 12:32:30",  1,  -56,  1001,  0,  0,  -1,  -12,  -26,  -36
478507, 1710333150, "2024/3/13 12:32:30",  2,  -57,  1002,  0,  0,  0,  -11,  -27,  -36
478707, 1710333150, "2024/3/13 12:32:30",  6,  -63,  1004,  0,  0,  -1,  -11,  -26,  -38
478907, 1710333150, "2024/3/13 12:32:30",  8,  -60,  1002,  0,  0,  0,  -9,  -27,  -36
479107, 1710333150, "2024/3/13 12:32:30",  4,  -53,  1005,  0,  0,  0,  -12,  -27,  -36
479307, 1710333151, "2024/3/13 12:32:31",  3,  -56,  1004,  0,  0,  -1,  -12,  -26,  -37
479507, 1710333151, "2024/3/13 12:32:31",  6,  -58,  1004,  0,  0,  -1,  -10,  -25,  -38
479707, 1710333151, "2024/3/13 12:32:31",  6,  -58,  1006,  0,  0,  0,  -11,  -26,  -36
479907, 1710333151, "2024/3/13 12:32:31",  3,  -62,  1001,  0,  -1,  -1,  -10,  -26,  -35
480107, 1710333151, "2024/3/13 12:32:31",  3,  -57,  1001,  0,  -1,  -1,  -12,  -27,  -36
480307, 1710333152, "2024/3/13 12:32:32",  5,  -55,  1002,  0,  0,  0,  -12,  -25,  -36
480507, 1710333152, "2024/3/13 12:32:32",  2,  -60,  1005,  0,  0,  0,  -12,  -25,  -35
480707, 1710333152, "2024/3/13 12:32:32",  2,  -56,  1003,  0,  0,  0,  -12,  -26,  -38
480907, 1710333152, "2024/3/13 12:32:32",  1,  -59,  1002,  0,  0,  -1,  -11,  -26,  -36
481107, 1710333152, "2024/3/13 12:32:32",  3,  -57,  1000,  0,  -1,  0,  -12,  -25,  -37
481307, 1710333153, "2024/3/13 12:32:33",  6,  -59,  1002,  0,  0,  0,  -12,  -26,  -35
481507, 1710333153, "2024/3/13 12:32:33",  5,  -54,  1002,  0,  0,  0,  -12,  -25,  -37
481707, 1710333153, "2024/3/13 12:32:33",  5,  -56,  1000,  0,  0,  0,  -12,  -25,  -36
481907, 1710333153, "2024/3/13 12:32:33",  1,  -60,  1001,  0,  0,  -1,  -11,  -26,  -36
482107, 1710333153, "2024/3/13 12:32:33",  8,  -68,  1005,  0,  0,  -1,  -12,  -25,  -35
482307, 1710333154, "2024/3/13 12:32:34",  0,  -53,  1003,  0,  0,  0,  -13,  -27,  -36
482507, 1710333154, "2024/3/13 12:32:34",  8,  -53,  1002,  0,  0,  0,  -12,  -26,  -38
482707, 1710333154, "2024/3/13 12:32:34",  1,  -59,  995,  0,  0,  -1,  -13,  -26,  -36
482907, 1710333154, "2024/3/13 12:32:34",  0,  -56,  1007,  0,  -1,  -1,  -11,  -26,  -35
483107, 1710333154, "2024/3/13 12:32:34",  16,  -58,  1024,  0,  0,  0,  -12,  -25,  -36
483307, 1710333155, "2024/3/13 12:32:35",  2,  -67,  1000,  0,  0,  0,  -11,  -27,  -38
483507, 1710333155, "2024/3/13 12:32:35",  -5,  -53,  1001,  0,  -1,  -1,  -13,  -26,  -38
483707, 1710333155, "2024/3/13 12:32:35",  8,  -57,  1003,  0,  0,  -1,  -12,  -25,  -36
483907, 1710333155, "2024/3/13 12:32:35",  8,  -61,  1007,  0,  0,  0,  -13,  -26,  -37
484107, 1710333155, "2024/3/13 12:32:35",  12,  -57,  1005,  0,  0,  0,  -11,  -27,  -36
484307, 1710333156, "2024/3/13 12:32:36",  7,  -55,  1004,  0,  0,  -1,  -13,  -25,  -35
484507, 1710333156, "2024/3/13 12:32:36",  1,  -66,  1007,  0,  0,  0,  -10,  -25,  -36
484707, 1710333156, "2024/3/13 12:32:36",  1,  -56,  1008,  0,  0,  0,  -13,  -26,  -35
484907, 1710333156, "2024/3/13 12:32:36",  8,  -56,  1001,  0,  0,  -1,  -10,  -27,  -36
485107, 1710333156, "2024/3/13 12:32:36",  8,  -59,  1000,  0,  0,  -1,  -13,  -26,  -37
485307, 1710333157, "2024/3/13 12:32:37",  4,  -61,  1003,  0,  0,  0,  -12,  -25,  -36
485507, 1710333157, "2024/3/13 12:32:37",  3,  -65,  1001,  0,  0,  0,  -11,  -25,  -37
485707, 1710333157, "2024/3/13 12:32:37",  3,  -61,  1002,  0,  0,  0,  -11,  -25,  -35
485907, 1710333157, "2024/3/13 12:32:37",  0,  -53,  1002,  0,  0,  0,  -12,  -26,  -37
486107, 1710333157, "2024/3/13 12:32:37",  0,  -57,  1002,  0,  0,  0,  -11,  -25,  -36
486307, 1710333158, "2024/3/13 12:32:38",  5,  -55,  1003,  0,  -1,  0,  -13,  -27,  -37
486507, 1710333158, "2024/3/13 12:32:38",  7,  -55,  998,  0,  0,  0,  -12,  -26,  -36
486707, 1710333158, "2024/3/13 12:32:38",  5,  -61,  1002,  0,  0,  0,  -13,  -25,  -34
486907, 1710333158, "2024/3/13 12:32:38",  5,  -61,  1005,  0,  0,  -1,  -11,  -26,  -36
487107, 1710333158, "2024/3/13 12:32:38",  11,  -56,  1003,  0,  0,  0,  -12,  -26,  -37
487307, 1710333159, "2024/3/13 12:32:39",  7,  -62,  1002,  0,  0,  -1,  -13,  -26,  -37
487507, 1710333159, "2024/3/13 12:32:39",  5,  -59,  1002,  0,  -1,  -1,  -12,  -25,  -36
487707, 1710333159, "2024/3/13 12:32:39",  5,  -53,  1003,  0,  0,  -1,  -11,  -26,  -37
487907, 1710333159, "2024/3/13 12:32:39",  10,  -61,  1004,  0,  0,  0,  -11,  -26,  -36
488107, 1710333159, "2024/3/13 12:32:39",  6,  -58,  1002,  0,  -1,  -1,  -12,  -26,  -36
488307, 1710333160, "2024/3/13 12:32:40",  5,  -61,  1003,  0,  0,  0,  -12,  -24,  -37
488507, 1710333160, "2024/3/13 12:32:40",  4,  -60,  1000,  0,  0,  -1,  -11,  -26,  -37
488707, 1710333160, "2024/3/13 12:32:40",  7,  -57,  1003,  0,  0,  0,  -12,  -25,  -36
488907, 1710333160, "2024/3/13 12:32:40",  3,  -59,  1003,  0,  0,  0,  -11,  -25,  -36
489107, 1710333160, "2024/3/13 12:32:40",  7,  -58,  1004,  0,  0,  0,  -11,  -26,  -35
489307, 1710333161, "2024/3/13 12:32:41",  8,  -57,  1002,  0,  0,  0,  -11,  -27,  -37
489507, 1710333161, "2024/3/13 12:32:41",  2,  -57,  1003,  0,  0,  0,  -12,  -26,  -36
489707, 1710333161, "2024/3/13 12:32:41",  11,  -58,  997,  0,  0,  -1,  -12,  -25,  -37
489907, 1710333161, "2024/3/13 12:32:41",  6,  -59,  999,  0,  0,  -1,  -9,  -25,  -36
490107, 1710333161, "2024/3/13 12:32:41",  3,  -59,  989,  0,  0,  -1,  -12,  -27,  -36
490307, 1710333162, "2024/3/13 12:32:42",  -8,  -56,  986,  0,  -1,  -1,  -12,  -27,  -36
490507, 1710333162, "2024/3/13 12:32:42",  5,  -57,  1006,  0,  0,  0,  -11,  -25,  -37
490707, 1710333162, "2024/3/13 12:32:42",  -1,  -51,  1002,  0,  0,  0,  -12,  -25,  -35
490907, 1710333162, "2024/3/13 12:32:42",  1,  -38,  1000,  0,  0,  0,  -12,  -25,  -35
491107, 1710333162, "2024/3/13 12:32:42",  -5,  -57,  1005,  0,  -1,  -1,  -12,  -26,  -36
491307, 1710333163, "2024/3/13 12:32:43",  5,  -65,  1002,  0,  0,  0,  -11,  -25,  -36
491507, 1710333163, "2024/3/13 12:32:43",  0,  -66,  1002,  0,  0,  0,  -14,  -25,  -37
491707, 1710333163, "2024/3/13 12:32:43",  0,  -61,  1001,  0,  0,  0,  -11,  -25,  -36
491907, 1710333163, "2024/3/13 12:32:43",  4,  -57,  1005,  0,  0,  0,  -11,  -24,  -36
492107, 1710333163, "2024/3/13 12:32:43",  0,  -54,  1003,  0,  0,  0,  -11,  -26,  -36
492307, 1710333164, "2024/3/13 12:32:44",  5,  -55,  1007,  0,  0,  0,  -12,  -26,  -36
492507, 1710333164, "2024/3/13 12:32:44",  3,  -62,  1005,  0,  0,  0,  -13,  -25,  -37
492707, 1710333164, "2024/3/13 12:32:44",  4,  -59,  1005,  0,  0,  0,  -13,  -27,  -36
492907, 1710333164, "2024/3/13 12:32:44",  -2,  -63,  1005,  0,  0,  -1,  -11,  -25,  -35
493107, 1710333164, "2024/3/13 12:32:44",  4,  -61,  1005,  0,  0,  -1,  -10,  -26,  -37
493307, 1710333165, "2024/3/13 12:32:45",  9,  -59,  1003,  0,  0,  -1,  -14,  -25,  -36
493507, 1710333165, "2024/3/13 12:32:45",  5,  -63,  1002,  0,  0,  0,  -11,  -25,  -37
493707, 1710333165, "2024/3/13 12:32:45",  3,  -63,  1002,  0,  0,  0,  -11,  -25,  -36
493907, 1710333165, "2024/3/13 12:32:45",  5,  -60,  1004,  0,  0,  -1,  -12,  -27,  -37
494107, 1710333165, "2024/3/13 12:32:45",  3,  -59,  1003,  0,  -1,  -1,  -11,  -25,  -35
494307, 1710333166, "2024/3/13 12:32:46",  4,  -56,  1002,  0,  0,  0,  -13,  -26,  -36
494507, 1710333166, "2024/3/13 12:32:46",  8,  -56,  1003,  0,  0,  -1,  -12,  -25,  -36
494707, 1710333166, "2024/3/13 12:32:46",  1,  -53,  1003,  0,  0,  0,  -12,  -24,  -37
494907, 1710333166, "2024/3/13 12:32:46",  3,  -56,  1002,  0,  0,  -1,  -13,  -27,  -36
495107, 1710333166, "2024/3/13 12:32:46",  6,  -56,  1004,  0,  0,  -1,  -12,  -26,  -37
495307, 1710333167, "2024/3/13 12:32:47",  1,  -58,  1002,  0,  0,  0,  -12,  -25,  -36
495507, 1710333167, "2024/3/13 12:32:47",  5,  -57,  1002,  0,  0,  0,  -11,  -25,  -36
495707, 1710333167, "2024/3/13 12:32:47",  6,  -61,  1005,  0,  0,  0,  -10,  -25,  -38
495907, 1710333167, "2024/3/13 12:32:47",  7,  -55,  998,  0,  0,  -1,  -11,  -25,  -35
496107, 1710333167, "2024/3/13 12:32:47",  5,  -55,  999,  0,  0,  0,  -10,  -27,  -36
496307, 1710333168, "2024/3/13 12:32:48",  8,  -55,  1003,  0,  -1,  0,  -10,  -26,  -38
496507, 1710333168, "2024/3/13 12:32:48",  6,  -60,  1005,  0,  0,  -1,  -13,  -26,  -36
496707, 1710333168, "2024/3/13 12:32:48",  6,  -60,  1001,  0,  0,  0,  -12,  -26,  -36
496907, 1710333168, "2024/3/13 12:32:48",  1,  -58,  1000,  0,  0,  -1,  -11,  -26,  -36
497107, 1710333168, "2024/3/13 12:32:48",  4,  -57,  1004,  0,  0,  -1,  -11,  -27,  -37
497307, 1710333169, "2024/3/13 12:32:49",  1,  -60,  1003,  0,  0,  -1,  -10,  -25,  -36
497507, 1710333169, "2024/3/13 12:32:49",  2,  -60,  1006,  0,  -1,  0,  -12,  -27,  -36
497707, 1710333169, "2024/3/13 12:32:49",  4,  -57,  1004,  0,  -1,  -1,  -13,  -24,  -36
497907, 1710333169, "2024/3/13 12:32:49",  4,  -64,  1001,  0,  -1,  -1,  -12,  -25,  -36
498107, 1710333169, "2024/3/13 12:32:49",  5,  -63,  1007,  0,  0,  -1,  -12,  -27,  -35
498307, 1710333170, "2024/3/13 12:32:50",  6,  -51,  1000,  0,  0,  0,  -11,  -28,  -37
498507, 1710333170, "2024/3/13 12:32:50",  4,  -60,  1002,  0,  -1,  -1,  -10,  -25,  -37
498707, 1710333170, "2024/3/13 12:32:50",  7,  -62,  1001,  0,  0,  0,  -13,  -26,  -37
498907, 1710333170, "2024/3/13 12:32:50",  8,  -58,  1004,  0,  0,  0,  -11,  -27,  -36
499107, 1710333170, "2024/3/13 12:32:50",  5,  -60,  1004,  0,  0,  0,  -10,  -26,  -35
499307, 1710333171, "2024/3/13 12:32:51",  7,  -59,  1002,  0,  0,  0,  -12,  -23,  -36
499507, 1710333171, "2024/3/13 12:32:51",  5,  -53,  1004,  0,  0,  -1,  -13,  -27,  -36
499707, 1710333171, "2024/3/13 12:32:51",  6,  -55,  1005,  0,  0,  0,  -12,  -27,  -36
499907, 1710333171, "2024/3/13 12:32:51",  2,  -55,  1005,  0,  0,  -1,  -12,  -27,  -36
500107, 1710333171, "2024/3/13 12:32:51",  4,  -57,  1006,  0,  0,  0,  -10,  -25,  -35
500307, 1710333172, "2024/3/13 12:32:52",  -1,  -62,  1000,  0,  0,  0,  -13,  -25,  -36
500507, 1710333172, "2024/3/13 12:32:52",  2,  -57,  1003,  0,  0,  0,  -11,  -24,  -37
500707, 1710333172, "2024/3/13 12:32:52",  3,  -59,  1003,  0,  0,  -1,  -12,  -25,  -36
500907, 1710333172, "2024/3/13 12:32:52",  4,  -59,  1005,  0,  0,  -1,  -10,  -25,  -35
501107, 1710333172, "2024/3/13 12:32:52",  10,  -51,  1005,  0,  0,  0,  -10,  -26,  -36
501307, 1710333173, "2024/3/13 12:32:53",  4,  -54,  1002,  0,  0,  0,  -11,  -26,  -37
501507, 1710333173, "2024/3/13 12:32:53",  5,  -59,  999,  0,  0,  0,  -11,  -26,  -36
501707, 1710333173, "2024/3/13 12:32:53",  2,  -63,  1000,  0,  -1,  -1,  -11,  -24,  -36
501907, 1710333173, "2024/3/13 12:32:53",  7,  -52,  1002,  0,  0,  0,  -11,  -25,  -37
502107, 1710333173, "2024/3/13 12:32:53",  3,  -56,  1001,  0,  0,  -1,  -11,  -25,  -35
502307, 1710333174, "2024/3/13 12:32:54",  4,  -60,  1006,  0,  0,  -1,  -10,  -26,  -35
502507, 1710333174, "2024/3/13 12:32:54",  4,  -50,  1004,  0,  0,  -1,  -12,  -24,  -37
502707, 1710333174, "2024/3/13 12:32:54",  2,  -56,  1004,  0,  0,  0,  -12,  -25,  -36
502907, 1710333174, "2024/3/13 12:32:54",  0,  -57,  1002,  0,  0,  0,  -12,  -26,  -37
503107, 1710333174, "2024/3/13 12:32:54",  6,  -60,  1004,  0,  0,  0,  -10,  -25,  -37
503307, 1710333175, "2024/3/13 12:32:55",  6,  -60,  1003,  0,  0,  -1,  -11,  -26,  -36
503507, 1710333175, "2024/3/13 12:32:55",  5,  -58,  1000,  0,  0,  0,  -11,  -25,  -37
503707, 1710333175, "2024/3/13 12:32:55",  2,  -62,  1000,  0,  0,  -1,  -13,  -27,  -37
503907, 1710333175, "2024/3/13 12:32:55",  4,  -57,  1008,  0,  0,  0,  -12,  -27,  -37
504107, 1710333175, "2024/3/13 12:32:55",  1,  -56,  1003,  0,  -1,  0,  -12,  -24,  -37
504307, 1710333176, "2024/3/13 12:32:56",  5,  -56,  1006,  0,  0,  -1,  -10,  -27,  -37
504507, 1710333176, "2024/3/13 12:32:56",  5,  -52,  1004,  0,  0,  -1,  -11,  -27,  -37
504707, 1710333176, "2024/3/13 12:32:56",  2,  -59,  1004,  0,  0,  -1,  -12,  -28,  -36
504907, 1710333176, "2024/3/13 12:32:56",  1,  -62,  1003,  0,  0,  0,  -11,  -26,  -35
505107, 1710333176, "2024/3/13 12:32:56",  5,  -54,  1002,  0,  0,  -1,  -12,  -25,  -36
505307, 1710333177, "2024/3/13 12:32:57",  6,  -62,  1003,  0,  0,  -1,  -12,  -27,  -36
505507, 1710333177, "2024/3/13 12:32:57",  3,  -58,  1005,  0,  0,  0,  -11,  -24,  -37
505707, 1710333177, "2024/3/13 12:32:57",  5,  -55,  1003,  0,  0,  0,  -12,  -25,  -37
505907, 1710333177, "2024/3/13 12:32:57",  7,  -55,  1008,  0,  0,  -1,  -12,  -27,  -36
506107, 1710333177, "2024/3/13 12:32:57",  0,  -62,  1000,  0,  0,  0,  -13,  -25,  -36
506307, 1710333178, "2024/3/13 12:32:58",  4,  -62,  1004,  0,  0,  0,  -11,  -26,  -35
506507, 1710333178, "2024/3/13 12:32:58",  3,  -60,  1004,  0,  -1,  -1,  -12,  -27,  -36
506707, 1710333178, "2024/3/13 12:32:58",  3,  -57,  1001,  0,  0,  -1,  -11,  -26,  -35
506907, 1710333178, "2024/3/13 12:32:58",  3,  -57,  1000,  0,  0,  0,  -9,  -27,  -36
507107, 1710333178, "2024/3/13 12:32:58",  7,  -60,  1003,  0,  -1,  -1,  -11,  -26,  -35
507307, 1710333179, "2024/3/13 12:32:59",  5,  -55,  1005,  0,  0,  -1,  -11,  -26,  -37
507507, 1710333179, "2024/3/13 12:32:59",  0,  -56,  1005,  0,  0,  -1,  -12,  -25,  -35
507707, 1710333179, "2024/3/13 12:32:59",  0,  -56,  1002,  0,  0,  0,  -13,  -25,  -35
507907, 1710333179, "2024/3/13 12:32:59",  4,  -53,  1004,  0,  0,  -1,  -12,  -23,  -36
508107, 1710333179, "2024/3/13 12:32:59",  6,  -57,  1002,  0,  0,  -1,  -12,  -25,  -37
508307, 1710333180, "2024/3/13 12:33:0",  3,  -56,  1002,  0,  0,  0,  -13,  -26,  -36
508507, 1710333180, "2024/3/13 12:33:0",  7,  -59,  1004,  0,  0,  -1,  -12,  -26,  -36
508707, 1710333180, "2024/3/13 12:33:0",  6,  -60,  1004,  0,  0,  0,  -12,  -26,  -36
508907, 1710333180, "2024/3/13 12:33:0",  8,  -38,  988,  0,  -1,  -1,  -14,  -26,  -36
509107, 1710333180, "2024/3/13 12:33:0",  10,  -66,  1003,  0,  0,  0,  -12,  -26,  -37
509307, 1710333181, "2024/3/13 12:33:1",  7,  -55,  1007,  0,  0,  0,  -11,  -27,  -36
509507, 1710333181, "2024/3/13 12:33:1",  9,  -55,  1005,  0,  0,  -1,  -12,  -25,  -37
509707, 1710333181, "2024/3/13 12:33:1",  9,  -56,  1005,  0,  0,  -1,  -14,  -26,  -36
509907, 1710333181, "2024/3/13 12:33:1",  3,  -61,  1002,  0,  0,  0,  -12,  -25,  -37
510107, 1710333181, "2024/3/13 12:33:1",  10,  -59,  1004,  0,  0,  0,  -12,  -27,  -37
510307, 1710333182, "2024/3/13 12:33:2",  7,  -61,  1002,  0,  0,  0,  -11,  -26,  -36
510507, 1710333182, "2024/3/13 12:33:2",  5,  -60,  1002,  0,  0,  0,  -12,  -25,  -35
510707, 1710333182, "2024/3/13 12:33:2",  5,  -66,  1002,  0,  0,  -1,  -11,  -26,  -37
510907, 1710333182, "2024/3/13 12:33:2",  -2,  -63,  1006,  0,  0,  0,  -10,  -26,  -37
511107, 1710333182, "2024/3/13 12:33:2",  0,  -52,  1003,  0,  0,  -1,  -12,  -25,  -36
511307, 1710333183, "2024/3/13 12:33:3",  1,  -55,  1002,  0,  0,  0,  -12,  -25,  -36
511507, 1710333183, "2024/3/13 12:33:3",  0,  -59,  1003,  0,  -1,  -1,  -12,  -25,  -38
511707, 1710333183, "2024/3/13 12:33:3",  2,  -55,  1000,  0,  0,  0,  -11,  -26,  -36
511907, 1710333183, "2024/3/13 12:33:3",  5,  -60,  1003,  0,  0,  -1,  -11,  -27,  -36
512107, 1710333183, "2024/3/13 12:33:3",  4,  -59,  1004,  0,  0,  0,  -12,  -26,  -36
512307, 1710333184, "2024/3/13 12:33:4",  6,  -53,  1003,  0,  -1,  0,  -12,  -26,  -36
512507, 1710333184, "2024/3/13 12:33:4",  8,  -58,  1003,  0,  0,  -1,  -10,  -26,  -36
512707, 1710333184, "2024/3/13 12:33:4",  6,  -58,  1004,  0,  0,  -1,  -11,  -27,  -36
512907, 1710333184, "2024/3/13 12:33:4",  5,  -58,  1004,  0,  0,  -1,  -11,  -27,  -36
513107, 1710333184, "2024/3/13 12:33:4",  4,  -63,  1001,  0,  0,  -1,  -12,  -27,  -37
513307, 1710333185, "2024/3/13 12:33:5",  9,  -57,  1004,  0,  0,  -1,  -11,  -26,  -35
513507, 1710333185, "2024/3/13 12:33:5",  2,  -62,  1006,  0,  -1,  -1,  -9,  -26,  -37
513707, 1710333185, "2024/3/13 12:33:5",  6,  -56,  1002,  0,  0,  -1,  -12,  -25,  -37
513907, 1710333185, "2024/3/13 12:33:5",  4,  -58,  1004,  0,  0,  -1,  -11,  -25,  -37
514107, 1710333185, "2024/3/13 12:33:5",  0,  -60,  1000,  0,  0,  0,  -12,  -25,  -36
514307, 1710333186, "2024/3/13 12:33:6",  4,  -53,  1003,  0,  0,  -1,  -12,  -25,  -36
514507, 1710333186, "2024/3/13 12:33:6",  4,  -51,  1000,  0,  0,  -1,  -12,  -28,  -36
514707, 1710333186, "2024/3/13 12:33:6",  -2,  -55,  1003,  0,  0,  -1,  -11,  -28,  -37
514907, 1710333186, "2024/3/13 12:33:6",  5,  -64,  1001,  0,  0,  0,  -11,  -26,  -37
515107, 1710333186, "2024/3/13 12:33:6",  2,  -59,  1002,  0,  0,  -1,  -11,  -26,  -36
515307, 1710333187, "2024/3/13 12:33:7",  5,  -61,  1004,  0,  0,  0,  -10,  -28,  -36
515507, 1710333187, "2024/3/13 12:33:7",  7,  -62,  1003,  0,  -1,  -1,  -12,  -25,  -36
515707, 1710333187, "2024/3/13 12:33:7",  2,  -62,  1004,  0,  0,  -1,  -11,  -25,  -36
515907, 1710333187, "2024/3/13 12:33:7",  3,  -55,  1006,  0,  0,  0,  -13,  -27,  -37
516107, 1710333187, "2024/3/13 12:33:7",  4,  -61,  1000,  0,  0,  0,  -13,  -25,  -34
516307, 1710333188, "2024/3/13 12:33:8",  0,  -61,  1001,  0,  0,  0,  -13,  -26,  -36
516507, 1710333188, "2024/3/13 12:33:8",  7,  -61,  1005,  0,  0,  -1,  -10,  -26,  -35
516707, 1710333188, "2024/3/13 12:33:8",  6,  -56,  1000,  0,  0,  -1,  -11,  -25,  -36
516907, 1710333188, "2024/3/13 12:33:8",  3,  -58,  1004,  0,  0,  -1,  -13,  -24,  -37
517107, 1710333188, "2024/3/13 12:33:8",  9,  -60,  1004,  0,  0,  0,  -11,  -26,  -37
517307, 1710333189, "2024/3/13 12:33:9",  4,  -58,  1003,  0,  -1,  -1,  -12,  -25,  -36
517507, 1710333189, "2024/3/13 12:33:9",  1,  -62,  1001,  0,  0,  0,  -12,  -27,  -36
517707, 1710333189, "2024/3/13 12:33:9",  7,  -58,  1002,  0,  -1,  -1,  -12,  -26,  -35
517907, 1710333189, "2024/3/13 12:33:9",  7,  -60,  1002,  0,  0,  -1,  -11,  -26,  -36
518107, 1710333189, "2024/3/13 12:33:9",  5,  -62,  1003,  0,  0,  0,  -12,  -25,  -35
518307, 1710333190, "2024/3/13 12:33:10",  3,  -61,  1005,  0,  0,  -1,  -11,  -26,  -36
518507, 1710333190, "2024/3/13 12:33:10",  4,  -59,  1006,  0,  0,  -1,  -10,  -28,  -37
518707, 1710333190, "2024/3/13 12:33:10",  5,  -54,  1001,  0,  0,  0,  -12,  -26,  -35
518907, 1710333190, "2024/3/13 12:33:10",  6,  -59,  1003,  0,  0,  0,  -12,  -26,  -36
519107, 1710333190, "2024/3/13 12:33:10",  2,  -59,  1002,  0,  0,  0,  -11,  -27,  -36
519307, 1710333191, "2024/3/13 12:33:11",  5,  -56,  1004,  0,  0,  -1,  -12,  -26,  -37
519507, 1710333191, "2024/3/13 12:33:11",  6,  -59,  1000,  0,  -1,  -1,  -12,  -27,  -36
519707, 1710333191, "2024/3/13 12:33:11",  2,  -57,  1005,  0,  0,  -1,  -11,  -26,  -37
519907, 1710333191, "2024/3/13 12:33:11",  1,  -55,  1003,  0,  0,  0,  -11,  -26,  -36
520107, 1710333191, "2024/3/13 12:33:11",  5,  -62,  1002,  0,  0,  0,  -10,  -27,  -36
520307, 1710333192, "2024/3/13 12:33:12",  4,  -64,  1004,  0,  -1,  -1,  -11,  -24,  -38
520507, 1710333192, "2024/3/13 12:33:12",  4,  -58,  1003,  0,  0,  -1,  -11,  -28,  -37
520707, 1710333192, "2024/3/13 12:33:12",  7,  -55,  1002,  0,  0,  0,  -11,  -25,  -37
520907, 1710333192, "2024/3/13 12:33:12",  4,  -52,  1000,  0,  0,  0,  -11,  -25,  -37
521107, 1710333192, "2024/3/13 12:33:12",  0,  -58,  1002,  0,  0,  0,  -10,  -26,  -37
521307, 1710333193, "2024/3/13 12:33:13",  6,  -64,  1002,  0,  0,  -1,  -11,  -26,  -36
521507, 1710333193, "2024/3/13 12:33:13",  6,  -60,  1003,  0,  -1,  0,  -10,  -26,  -36
521707, 1710333193, "2024/3/13 12:33:13",  0,  -57,  1006,  0,  0,  0,  -12,  -27,  -34
521907, 1710333193, "2024/3/13 12:33:13",  3,  -53,  1002,  0,  0,  -1,  -12,  -26,  -36
522107, 1710333193, "2024/3/13 12:33:13",  3,  -57,  1004,  0,  0,  0,  -13,  -27,  -36
522307, 1710333194, "2024/3/13 12:33:14",  4,  -58,  1005,  0,  0,  -1,  -12,  -26,  -37
522507, 1710333194, "2024/3/13 12:33:14",  5,  -60,  1006,  0,  0,  -1,  -11,  -26,  -36
522707, 1710333194, "2024/3/13 12:33:14",  10,  -58,  1000,  0,  0,  -1,  -12,  -25,  -37
522907, 1710333194, "2024/3/13 12:33:14",  4,  -52,  1005,  0,  0,  0,  -12,  -26,  -37
523107, 1710333194, "2024/3/13 12:33:14",  3,  -58,  1004,  0,  0,  -1,  -12,  -25,  -37
523307, 1710333195, "2024/3/13 12:33:15",  7,  -54,  1004,  0,  0,  0,  -12,  -28,  -36
523507, 1710333195, "2024/3/13 12:33:15",  7,  -60,  1006,  0,  0,  -1,  -12,  -25,  -36
523707, 1710333195, "2024/3/13 12:33:15",  8,  -60,  1003,  0,  0,  0,  -11,  -27,  -37
523907, 1710333195, "2024/3/13 12:33:15",  7,  -57,  1002,  0,  0,  0,  -10,  -24,  -36
524107, 1710333195, "2024/3/13 12:33:15",  7,  -54,  1000,  0,  -1,  0,  -12,  -27,  -37
524307, 1710333196, "2024/3/13 12:33:16",  4,  -60,  1002,  0,  0,  0,  -11,  -27,  -38
524507, 1710333196, "2024/3/13 12:33:16",  8,  -61,  1000,  0,  0,  0,  -11,  -27,  -36
524707, 1710333196, "2024/3/13 12:33:16",  5,  -54,  1000,  0,  0,  -1,  -11,  -26,  -37
524907, 1710333196, "2024/3/13 12:33:16",  7,  -56,  1000,  0,  -1,  0,  -12,  -27,  -37
525107, 1710333196, "2024/3/13 12:33:16",  6,  -62,  1005,  0,  0,  0,  -12,  -25,  -37
525307, 1710333197, "2024/3/13 12:33:17",  5,  -61,  999,  0,  0,  0,  -12,  -28,  -36
525507, 1710333197, "2024/3/13 12:33:17",  5,  -60,  1004,  0,  0,  -1,  -11,  -25,  -37
525707, 1710333197, "2024/3/13 12:33:17",  6,  -62,  1003,  0,  0,  -1,  -12,  -26,  -36
525907, 1710333197, "2024/3/13 12:33:17",  9,  -55,  1003,  0,  -1,  -1,  -13,  -26,  -37
526107, 1710333197, "2024/3/13 12:33:17",  5,  -60,  1002,  0,  -1,  -1,  -12,  -25,  -37
526307, 1710333198, "2024/3/13 12:33:18",  6,  -60,  1001,  0,  0,  0,  -12,  -25,  -37
526507, 1710333198, "2024/3/13 12:33:18",  6,  -58,  1004,  0,  -1,  -1,  -12,  -26,  -36
526707, 1710333198, "2024/3/13 12:33:18",  5,  -56,  1003,  0,  0,  0,  -12,  -26,  -36
526907, 1710333198, "2024/3/13 12:33:18",  4,  -60,  1000,  0,  0,  0,  -13,  -26,  -36
527107, 1710333198, "2024/3/13 12:33:18",  7,  -53,  1003,  0,  0,  -1,  -12,  -28,  -36
527307, 1710333199, "2024/3/13 12:33:19",  2,  -59,  1000,  0,  0,  -1,  -11,  -24,  -37
527507, 1710333199, "2024/3/13 12:33:19",  1,  -54,  1003,  0,  0,  -1,  -10,  -26,  -37
527707, 1710333199, "2024/3/13 12:33:19",  4,  -57,  1002,  0,  0,  0,  -11,  -26,  -35
527907, 1710333199, "2024/3/13 12:33:19",  3,  -57,  1005,  0,  0,  0,  -12,  -26,  -35
528107, 1710333199, "2024/3/13 12:33:19",  3,  -58,  1000,  0,  0,  -1,  -12,  -24,  -37
528307, 1710333200, "2024/3/13 12:33:20",  4,  -52,  1004,  0,  0,  0,  -12,  -27,  -37
528507, 1710333200, "2024/3/13 12:33:20",  4,  -56,  1004,  0,  0,  -1,  -12,  -25,  -37
528707, 1710333200, "2024/3/13 12:33:20",  3,  -56,  1004,  0,  0,  -1,  -11,  -24,  -36
528907, 1710333200, "2024/3/13 12:33:20",  8,  -62,  1003,  0,  0,  -1,  -12,  -25,  -36
529107, 1710333200, "2024/3/13 12:33:20",  10,  -57,  1002,  0,  0,  0,  -11,  -26,  -36
529307, 1710333201, "2024/3/13 12:33:21",  8,  -63,  1003,  0,  0,  0,  -11,  -25,  -37
529507, 1710333201, "2024/3/13 12:33:21",  5,  -58,  1004,  0,  0,  0,  -12,  -26,  -36
529707, 1710333201, "2024/3/13 12:33:21",  4,  -60,  1002,  0,  0,  -1,  -12,  -25,  -36
529907, 1710333201, "2024/3/13 12:33:21",  5,  -59,  1003,  0,  -1,  -1,  -12,  -24,  -36
530107, 1710333201, "2024/3/13 12:33:21",  3,  -57,  1001,  0,  0,  -1,  -12,  -25,  -36
530307, 1710333202, "2024/3/13 12:33:22",  3,  -56,  1003,  0,  0,  0,  -13,  -26,  -35
530507, 1710333202, "2024/3/13 12:33:22",  2,  -55,  1003,  0,  0,  -1,  -11,  -24,  -37
530707, 1710333202, "2024/3/13 12:33:22",  4,  -60,  1004,  0,  0,  -1,  -11,  -25,  -37
530907, 1710333202, "2024/3/13 12:33:22",  4,  -54,  999,  0,  0,  0,  -12,  -26,  -36
531107, 1710333202, "2024/3/13 12:33:22",  1,  -64,  1005,  0,  0,  -1,  -12,  -27,  -36
531307, 1710333203, "2024/3/13 12:33:23",  3,  -60,  1003,  0,  0,  0,  -12,  -25,  -35
531507, 1710333203, "2024/3/13 12:33:23",  0,  -60,  1002,  0,  0,  0,  -11,  -25,  -37
531707, 1710333203, "2024/3/13 12:33:23",  3,  -59,  1002,  0,  0,  0,  -13,  -25,  -36
531907, 1710333203, "2024/3/13 12:33:23",  4,  -57,  1004,  0,  0,  -1,  -12,  -28,  -36
532107, 1710333203, "2024/3/13 12:33:23",  4,  -58,  1001,  0,  0,  0,  -13,  -26,  -37
532307, 1710333204, "2024/3/13 12:33:24",  1,  -57,  1005,  0,  0,  0,  -12,  -26,  -35
532507, 1710333204, "2024/3/13 12:33:24",  4,  -62,  1002,  0,  0,  -1,  -12,  -25,  -35
532707, 1710333204, "2024/3/13 12:33:24",  5,  -54,  1003,  0,  0,  -1,  -10,  -25,  -35
532907, 1710333204, "2024/3/13 12:33:24",  4,  -56,  1004,  0,  0,  -1,  -11,  -28,  -36
533107, 1710333204, "2024/3/13 12:33:24",  4,  -54,  1002,  0,  0,  0,  -13,  -24,  -37
533307, 1710333205, "2024/3/13 12:33:25",  5,  -59,  1004,  0,  0,  0,  -11,  -26,  -35
533507, 1710333205, "2024/3/13 12:33:25",  4,  -61,  1006,  0,  0,  0,  -12,  -26,  -34
533707, 1710333205, "2024/3/13 12:33:25",  9,  -64,  1004,  0,  0,  0,  -12,  -28,  -36
533907, 1710333205, "2024/3/13 12:33:25",  5,  -58,  1001,  0,  0,  -1,  -11,  -26,  -36
534107, 1710333205, "2024/3/13 12:33:25",  1,  -57,  1005,  0,  0,  0,  -11,  -25,  -35
534307, 1710333206, "2024/3/13 12:33:26",  5,  -57,  1002,  0,  0,  -1,  -12,  -25,  -36
534507, 1710333206, "2024/3/13 12:33:26",  5,  -62,  997,  0,  0,  0,  -12,  -26,  -36
534707, 1710333206, "2024/3/13 12:33:26",  2,  -67,  1001,  0,  0,  0,  -12,  -26,  -36
534907, 1710333206, "2024/3/13 12:33:26",  0,  -59,  1005,  0,  0,  0,  -12,  -27,  -37
535107, 1710333206, "2024/3/13 12:33:26",  2,  -57,  1002,  0,  0,  0,  -12,  -27,  -36
535307, 1710333207, "2024/3/13 12:33:27",  5,  -61,  1001,  0,  0,  -1,  -12,  -26,  -36
535507, 1710333207, "2024/3/13 12:33:27",  5,  -60,  1004,  0,  -1,  -1,  -13,  -27,  -34
535707, 1710333207, "2024/3/13 12:33:27",  6,  -58,  1005,  0,  0,  -1,  -12,  -27,  -35
535907, 1710333207, "2024/3/13 12:33:27",  3,  -53,  1006,  0,  0,  0,  -12,  -26,  -36
536107, 1710333207, "2024/3/13 12:33:27",  6,  -56,  1000,  1,  0,  -1,  -14,  -25,  -37
536307, 1710333208, "2024/3/13 12:33:28",  3,  -63,  1005,  0,  0,  0,  -12,  -25,  -36
536507, 1710333208, "2024/3/13 12:33:28",  5,  -56,  1003,  0,  -1,  0,  -11,  -26,  -37
536707, 1710333208, "2024/3/13 12:33:28",  5,  -57,  1003,  0,  0,  -1,  -13,  -26,  -36
536907, 1710333208, "2024/3/13 12:33:28",  4,  -55,  1001,  0,  0,  0,  -13,  -25,  -36
537107, 1710333208, "2024/3/13 12:33:28",  2,  -58,  1005,  0,  0,  0,  -12,  -26,  -36
537307, 1710333209, "2024/3/13 12:33:29",  7,  -61,  1002,  0,  0,  -1,  -12,  -26,  -37
537507, 1710333209, "2024/3/13 12:33:29",  6,  -58,  1000,  0,  0,  0,  -12,  -25,  -36
537707, 1710333209, "2024/3/13 12:33:29",  6,  -60,  1003,  0,  0,  -1,  -11,  -26,  -36
537907, 1710333209, "2024/3/13 12:33:29",  6,  -57,  1004,  0,  0,  -1,  -12,  -25,  -35
538107, 1710333209, "2024/3/13 12:33:29",  4,  -65,  1004,  0,  0,  -1,  -10,  -27,  -35
538307, 1710333210, "2024/3/13 12:33:30",  0,  -57,  1000,  0,  0,  -1,  -12,  -24,  -37
538507, 1710333210, "2024/3/13 12:33:30",  2,  -61,  1001,  0,  0,  0,  -11,  -26,  -37
538707, 1710333210, "2024/3/13 12:33:30",  7,  -58,  1001,  0,  0,  -1,  -11,  -25,  -37
538907, 1710333210, "2024/3/13 12:33:30",  7,  -61,  1002,  0,  0,  0,  -12,  -26,  -37
539107, 1710333210, "2024/3/13 12:33:30",  6,  -54,  1005,  0,  0,  -1,  -11,  -27,  -36
539307, 1710333211, "2024/3/13 12:33:31",  3,  -57,  1000,  0,  0,  0,  -11,  -26,  -36
539507, 1710333211, "2024/3/13 12:33:31",  5,  -60,  1004,  0,  -1,  -1,  -10,  -25,  -35
539707, 1710333211, "2024/3/13 12:33:31",  1,  -56,  1004,  0,  0,  -1,  -12,  -24,  -35
539907, 1710333211, "2024/3/13 12:33:31",  7,  -60,  1003,  0,  0,  0,  -11,  -28,  -35
540107, 1710333211, "2024/3/13 12:33:31",  7,  -58,  1006,  0,  0,  -1,  -10,  -26,  -35
540307, 1710333212, "2024/3/13 12:33:32",  2,  -64,  1004,  0,  0,  -1,  -10,  -26,  -35
540507, 1710333212, "2024/3/13 12:33:32",  2,  -55,  1001,  0,  0,  -1,  -11,  -25,  -35
540707, 1710333212, "2024/3/13 12:33:32",  5,  -62,  1001,  0,  0,  0,  -11,  -26,  -38
540907, 1710333212, "2024/3/13 12:33:32",  1,  -53,  1006,  0,  0,  0,  -10,  -28,  -35
541107, 1710333212, "2024/3/13 12:33:32",  5,  -60,  1002,  0,  0,  0,  -11,  -25,  -37
541307, 1710333213, "2024/3/13 12:33:33",  5,  -64,  1004,  0,  0,  0,  -12,  -26,  -36
541507, 1710333213, "2024/3/13 12:33:33",  7,  -57,  1002,  0,  0,  0,  -11,  -25,  -36
541707, 1710333213, "2024/3/13 12:33:33",  7,  -61,  1004,  0,  0,  -1,  -13,  -26,  -37
541907, 1710333213, "2024/3/13 12:33:33",  6,  -58,  1004,  0,  -1,  -1,  -12,  -25,  -36
542107, 1710333213, "2024/3/13 12:33:33",  8,  -59,  1004,  0,  0,  -1,  -13,  -28,  -35
542307, 1710333214, "2024/3/13 12:33:34",  7,  -53,  1003,  0,  0,  0,  -12,  -27,  -36
542507, 1710333214, "2024/3/13 12:33:34",  3,  -57,  1002,  0,  0,  -1,  -11,  -26,  -36
542707, 1710333214, "2024/3/13 12:33:34",  1,  -59,  1004,  0,  0,  0,  -13,  -26,  -36
542907, 1710333214, "2024/3/13 12:33:34",  3,  -60,  1001,  0,  -1,  0,  -9,  -25,  -36
543107, 1710333214, "2024/3/13 12:33:34",  3,  -61,  1004,  0,  0,  0,  -10,  -25,  -37
543307, 1710333215, "2024/3/13 12:33:35",  2,  -61,  1005,  0,  0,  -1,  -11,  -26,  -36
543507, 1710333215, "2024/3/13 12:33:35",  4,  -60,  1005,  0,  0,  0,  -12,  -28,  -36
543707, 1710333215, "2024/3/13 12:33:35",  2,  -62,  1001,  0,  0,  0,  -11,  -26,  -36
543907, 1710333215, "2024/3/13 12:33:35",  5,  -58,  1002,  0,  0,  0,  -11,  -27,  -36
544107, 1710333215, "2024/3/13 12:33:35",  7,  -55,  1004,  0,  0,  0,  -11,  -27,  -36
544307, 1710333216, "2024/3/13 12:33:36",  5,  -56,  1002,  0,  0,  -1,  -10,  -26,  -36
544507, 1710333216, "2024/3/13 12:33:36",  5,  -60,  1000,  0,  0,  0,  -13,  -26,  -36
544707, 1710333216, "2024/3/13 12:33:36",  4,  -54,  1004,  0,  0,  0,  -12,  -26,  -36
544907, 1710333216, "2024/3/13 12:33:36",  6,  -58,  1004,  0,  0,  0,  -11,  -26,  -36
545107, 1710333216, "2024/3/13 12:33:36",  9,  -56,  1000,  0,  0,  0,  -11,  -26,  -36
545307, 1710333217, "2024/3/13 12:33:37",  5,  -55,  1002,  0,  0,  -1,  -12,  -25,  -36
545507, 1710333217, "2024/3/13 12:33:37",  1,  -62,  1002,  0,  0,  -1,  -11,  -26,  -35
545707, 1710333217, "2024/3/13 12:33:37",  4,  -63,  1001,  0,  0,  -1,  -12,  -26,  -36
545907, 1710333217, "2024/3/13 12:33:37",  5,  -58,  1005,  0,  0,  0,  -13,  -24,  -36
546107, 1710333217, "2024/3/13 12:33:37",  5,  -59,  1002,  0,  0,  -1,  -11,  -28,  -36
546307, 1710333218, "2024/3/13 12:33:38",  4,  -58,  1004,  0,  0,  -1,  -14,  -26,  -37
546507, 1710333218, "2024/3/13 12:33:38",  9,  -57,  1005,  0,  0,  0,  -11,  -25,  -36
546707, 1710333218, "2024/3/13 12:33:38",  6,  -55,  1000,  0,  0,  0,  -12,  -26,  -36
546907, 1710333218, "2024/3/13 12:33:38",  4,  -57,  1002,  0,  0,  0,  -12,  -27,  -36
547107, 1710333218, "2024/3/13 12:33:38",  3,  -66,  1000,  0,  0,  -1,  -11,  -26,  -36
547307, 1710333219, "2024/3/13 12:33:39",  6,  -63,  1005,  0,  0,  -1,  -12,  -26,  -34
547507, 1710333219, "2024/3/13 12:33:39",  1,  -62,  1003,  0,  -1,  -1,  -12,  -25,  -37
547707, 1710333219, "2024/3/13 12:33:39",  5,  -58,  1003,  0,  -1,  -1,  -10,  -27,  -35
547907, 1710333219, "2024/3/13 12:33:39",  2,  -61,  1005,  0,  0,  -1,  -12,  -27,  -36
548107, 1710333219, "2024/3/13 12:33:39",  1,  -59,  1001,  0,  0,  -1,  -12,  -28,  -36
548307, 1710333220, "2024/3/13 12:33:40",  1,  -61,  1000,  0,  0,  0,  -11,  -25,  -36
548507, 1710333220, "2024/3/13 12:33:40",  6,  -60,  1002,  0,  -1,  0,  -12,  -25,  -38
548707, 1710333220, "2024/3/13 12:33:40",  6,  -54,  1005,  0,  0,  0,  -12,  -25,  -36
548907, 1710333220, "2024/3/13 12:33:40",  4,  -56,  1001,  0,  0,  -1,  -11,  -25,  -36
