millis,stamp,datetime,accX,accY,accZ,gyroX,gyroY,gyroZ,compX,compY,compZ
2592484, 1710335825, "2024/3/13 13:17:5",  4,  -64,  1000,  0,  0,  -1,  -10,  -27,  -36
2592684, 1710335825, "2024/3/13 13:17:5",  6,  -64,  1004,  0,  0,  0,  -10,  -26,  -36
2592884, 1710335825, "2024/3/13 13:17:5",  4,  -59,  1002,  0,  0,  0,  -12,  -28,  -36
2593084, 1710335825, "2024/3/13 13:17:5",  2,  -59,  1001,  0,  0,  -1,  -10,  -26,  -35
2593284, 1710335825, "2024/3/13 13:17:5",  3,  -56,  1000,  0,  0,  0,  -11,  -24,  -36
2593484, 1710335826, "2024/3/13 13:17:6",  2,  -58,  1003,  0,  0,  -1,  -10,  -27,  -37
2593684, 1710335826, "2024/3/13 13:17:6",  3,  -59,  1002,  0,  0,  -1,  -9,  -27,  -37
2593884, 1710335826, "2024/3/13 13:17:6",  2,  -59,  1005,  0,  -1,  -1,  -11,  -27,  -37
2594084, 1710335826, "2024/3/13 13:17:6",  7,  -69,  1001,  0,  -1,  0,  -12,  -27,  -37
2594284, 1710335826, "2024/3/13 13:17:6",  8,  -61,  1002,  0,  0,  -1,  -11,  -27,  -37
2594484, 1710335827, "2024/3/13 13:17:7",  2,  -60,  1004,  0,  0,  -1,  -10,  -26,  -36
2594684, 1710335827, "2024/3/13 13:17:7",  7,  -54,  1001,  0,  -1,  -1,  -10,  -25,  -35
2594884, 1710335827, "2024/3/13 13:17:7",  5,  -52,  1002,  0,  0,  0,  -10,  -25,  -37
2595084, 1710335827, "2024/3/13 13:17:7",  2,  -54,  1003,  0,  0,  0,  -10,  -28,  -36
2595284, 1710335827, "2024/3/13 13:17:7",  5,  -62,  1004,  0,  0,  0,  -12,  -26,  -36
2595484, 1710335828, "2024/3/13 13:17:8",  9,  -50,  1005,  0,  0,  -1,  -11,  -27,  -36
2595684, 1710335828, "2024/3/13 13:17:8",  2,  -55,  1006,  0,  -1,  -1,  -10,  -27,  -35
2595884, 1710335828, "2024/3/13 13:17:8",  -8,  -63,  1001,  0,  0,  -1,  -10,  -24,  -37
2596084, 1710335828, "2024/3/13 13:17:8",  -5,  -59,  1006,  0,  0,  0,  -10,  -27,  -35
2596284, 1710335828, "2024/3/13 13:17:8",  2,  -62,  1000,  0,  0,  -1,  -11,  -27,  -36
2596484, 1710335829, "2024/3/13 13:17:9",  2,  -57,  1005,  0,  0,  -1,  -11,  -26,  -37
2596684, 1710335829, "2024/3/13 13:17:9",  4,  -60,  1006,  0,  0,  -1,  -13,  -24,  -36
2596884, 1710335829, "2024/3/13 13:17:9",  1,  -59,  1001,  0,  0,  -1,  -10,  -25,  -36
2597084, 1710335829, "2024/3/13 13:17:9",  2,  -63,  1005,  0,  0,  0,  -10,  -28,  -35
2597284, 1710335829, "2024/3/13 13:17:9",  5,  -58,  1007,  0,  0,  -1,  -10,  -25,  -36
2597484, 1710335830, "2024/3/13 13:17:10",  5,  -62,  1007,  0,  0,  -1,  -11,  -27,  -37
2597684, 1710335830, "2024/3/13 13:17:10",  7,  -58,  1003,  0,  0,  0,  -11,  -26,  -36
2597884, 1710335830, "2024/3/13 13:17:10",  8,  -58,  1005,  0,  0,  -1,  -9,  -26,  -36
2598084, 1710335830, "2024/3/13 13:17:10",  11,  -57,  1000,  0,  0,  0,  -11,  -25,  -37
2598284, 1710335830, "2024/3/13 13:17:10",  5,  -57,  1004,  0,  -1,  -1,  -10,  -26,  -37
2598484, 1710335831, "2024/3/13 13:17:11",  12,  -62,  1001,  0,  0,  -1,  -11,  -26,  -37
2598684, 1710335831, "2024/3/13 13:17:11",  8,  -69,  1008,  0,  0,  0,  -10,  -26,  -36
2598884, 1710335831, "2024/3/13 13:17:11",  6,  -53,  1004,  0,  0,  -1,  -10,  -25,  -36
2599084, 1710335831, "2024/3/13 13:17:11",  6,  -65,  1005,  0,  0,  -1,  -10,  -28,  -36
2599284, 1710335831, "2024/3/13 13:17:11",  9,  -57,  998,  0,  0,  0,  -10,  -26,  -36
2599484, 1710335832, "2024/3/13 13:17:12",  11,  -55,  1003,  0,  0,  -1,  -9,  -26,  -36
2599684, 1710335832, "2024/3/13 13:17:12",  7,  -55,  1000,  0,  0,  -1,  -10,  -27,  -36
2599884, 1710335832, "2024/3/13 13:17:12",  6,  -65,  996,  0,  0,  -1,  -11,  -27,  -37
2600084, 1710335832, "2024/3/13 13:17:12",  7,  -64,  1005,  0,  0,  0,  -11,  -27,  -38
2600284, 1710335832, "2024/3/13 13:17:12",  10,  -58,  1005,  0,  0,  0,  -11,  -28,  -36
2600484, 1710335833, "2024/3/13 13:17:13",  7,  -59,  1004,  0,  -1,  -1,  -10,  -28,  -36
2600684, 1710335833, "2024/3/13 13:17:13",  9,  -58,  1003,  0,  0,  -1,  -10,  -27,  -37
2600884, 1710335833, "2024/3/13 13:17:13",  8,  -60,  1006,  0,  0,  -1,  -8,  -25,  -36
2601084, 1710335833, "2024/3/13 13:17:13",  4,  -64,  1004,  0,  0,  -1,  -9,  -26,  -37
2601284, 1710335833, "2024/3/13 13:17:13",  4,  -61,  1003,  0,  0,  -1,  -12,  -28,  -35
2601484, 1710335834, "2024/3/13 13:17:14",  2,  -62,  1002,  0,  0,  0,  -10,  -26,  -36
2601684, 1710335834, "2024/3/13 13:17:14",  9,  -62,  999,  0,  0,  -1,  -10,  -27,  -37
2601884, 1710335834, "2024/3/13 13:17:14",  12,  -56,  1004,  0,  0,  -1,  -12,  -28,  -36
2602084, 1710335834, "2024/3/13 13:17:14",  4,  -51,  996,  0,  0,  -1,  -10,  -25,  -37
2602284, 1710335834, "2024/3/13 13:17:14",  5,  -58,  1000,  0,  0,  -1,  -10,  -25,  -37
2602484, 1710335835, "2024/3/13 13:17:15",  6,  -53,  1004,  0,  0,  0,  -11,  -25,  -35
2602684, 1710335835, "2024/3/13 13:17:15",  5,  -61,  1008,  0,  0,  -1,  -10,  -27,  -36
2602884, 1710335835, "2024/3/13 13:17:15",  7,  -69,  1004,  0,  0,  -1,  -9,  -26,  -35
2603084, 1710335835, "2024/3/13 13:17:15",  6,  -58,  1003,  0,  0,  0,  -11,  -26,  -37
2603284, 1710335835, "2024/3/13 13:17:15",  3,  -65,  1005,  0,  -1,  0,  -11,  -27,  -36
2603484, 1710335836, "2024/3/13 13:17:16",  6,  -59,  1002,  0,  -1,  -1,  -10,  -26,  -38
2603684, 1710335836, "2024/3/13 13:17:16",  7,  -56,  1000,  0,  0,  0,  -10,  -27,  -36
2603884, 1710335836, "2024/3/13 13:17:16",  11,  -48,  1006,  0,  0,  -1,  -10,  -28,  -36
2604084, 1710335836, "2024/3/13 13:17:16",  4,  -63,  1003,  0,  0,  0,  -10,  -26,  -36
2604284, 1710335836, "2024/3/13 13:17:16",  12,  -51,  1007,  0,  0,  0,  -10,  -26,  -36
2604484, 1710335837, "2024/3/13 13:17:17",  6,  -63,  1003,  0,  0,  -1,  -11,  -27,  -37
2604684, 1710335837, "2024/3/13 13:17:17",  12,  -61,  1004,  0,  0,  -1,  -11,  -26,  -37
2604884, 1710335837, "2024/3/13 13:17:17",  5,  -57,  1004,  0,  0,  -1,  -10,  -25,  -36
2605084, 1710335837, "2024/3/13 13:17:17",  4,  -60,  1006,  0,  0,  -1,  -12,  -26,  -38
2605284, 1710335837, "2024/3/13 13:17:17",  3,  -56,  1004,  0,  0,  -1,  -10,  -26,  -37
2605484, 1710335838, "2024/3/13 13:17:18",  7,  -62,  1001,  0,  0,  0,  -11,  -27,  -36
2605684, 1710335838, "2024/3/13 13:17:18",  6,  -52,  1003,  0,  0,  0,  -9,  -27,  -37
2605884, 1710335838, "2024/3/13 13:17:18",  0,  -60,  1003,  0,  0,  0,  -11,  -26,  -37
2606084, 1710335838, "2024/3/13 13:17:18",  1,  -62,  1001,  0,  -1,  0,  -10,  -27,  -36
2606284, 1710335838, "2024/3/13 13:17:18",  0,  -51,  1006,  0,  0,  -1,  -9,  -28,  -37
2606484, 1710335839, "2024/3/13 13:17:19",  4,  -63,  1005,  0,  0,  0,  -11,  -26,  -36
2606684, 1710335839, "2024/3/13 13:17:19",  8,  -63,  1001,  0,  0,  -1,  -12,  -28,  -36
2606884, 1710335839, "2024/3/13 13:17:19",  10,  -62,  1008,  0,  0,  0,  -12,  -28,  -37
2607084, 1710335839, "2024/3/13 13:17:19",  7,  -56,  1001,  0,  0,  -1,  -10,  -27,  -36
2607284, 1710335839, "2024/3/13 13:17:19",  5,  -62,  1001,  0,  0,  0,  -11,  -25,  -37
2607484, 1710335840, "2024/3/13 13:17:20",  6,  -56,  1002,  0,  -1,  -1,  -11,  -26,  -37
2607684, 1710335840, "2024/3/13 13:17:20",  5,  -59,  1003,  0,  0,  -1,  -11,  -26,  -37
2607884, 1710335840, "2024/3/13 13:17:20",  7,  -54,  1003,  0,  0,  -1,  -9,  -27,  -35
2608084, 1710335840, "2024/3/13 13:17:20",  8,  -58,  1004,  0,  0,  0,  -11,  -25,  -37
2608284, 1710335840, "2024/3/13 13:17:20",  7,  -61,  1003,  0,  0,  0,  -12,  -27,  -37
2608484, 1710335841, "2024/3/13 13:17:21",  4,  -47,  1001,  0,  0,  -1,  -11,  -28,  -36
2608684, 1710335841, "2024/3/13 13:17:21",  3,  -52,  1001,  0,  0,  -1,  -11,  -26,  -36
2608884, 1710335841, "2024/3/13 13:17:21",  12,  -61,  1003,  0,  -1,  0,  -11,  -25,  -37
2609084, 1710335841, "2024/3/13 13:17:21",  6,  -53,  1001,  0,  0,  -1,  -10,  -26,  -37
2609284, 1710335841, "2024/3/13 13:17:21",  4,  -56,  1004,  0,  0,  -1,  -11,  -26,  -37
2609484, 1710335842, "2024/3/13 13:17:22",  4,  -65,  1003,  0,  0,  -1,  -11,  -26,  -36
2609684, 1710335842, "2024/3/13 13:17:22",  7,  -55,  1001,  0,  0,  -1,  -11,  -26,  -34
2609884, 1710335842, "2024/3/13 13:17:22",  1,  -57,  1002,  0,  0,  0,  -10,  -27,  -35
2610084, 1710335842, "2024/3/13 13:17:22",  3,  -54,  1003,  0,  0,  0,  -10,  -25,  -36
2610284, 1710335842, "2024/3/13 13:17:22",  2,  -58,  1000,  0,  0,  0,  -9,  -27,  -34
2610484, 1710335843, "2024/3/13 13:17:23",  7,  -51,  1002,  0,  0,  0,  -11,  -27,  -36
2610684, 1710335843, "2024/3/13 13:17:23",  3,  -58,  1002,  0,  0,  -1,  -12,  -28,  -37
2610884, 1710335843, "2024/3/13 13:17:23",  8,  -57,  1005,  0,  0,  0,  -9,  -28,  -36
2611084, 1710335843, "2024/3/13 13:17:23",  5,  -59,  1003,  0,  0,  -1,  -10,  -25,  -37
2611284, 1710335843, "2024/3/13 13:17:23",  7,  -59,  1005,  0,  0,  0,  -11,  -27,  -37
2611484, 1710335844, "2024/3/13 13:17:24",  3,  -56,  1004,  0,  0,  -1,  -10,  -26,  -36
2611684, 1710335844, "2024/3/13 13:17:24",  3,  -61,  1003,  0,  0,  -1,  -10,  -27,  -36
2611884, 1710335844, "2024/3/13 13:17:24",  6,  -56,  1002,  0,  0,  0,  -12,  -24,  -37
2612084, 1710335844, "2024/3/13 13:17:24",  0,  -61,  1005,  0,  0,  0,  -11,  -27,  -37
2612284, 1710335844, "2024/3/13 13:17:24",  2,  -60,  1004,  0,  0,  -1,  -10,  -25,  -36
2612484, 1710335845, "2024/3/13 13:17:25",  3,  -61,  1003,  0,  0,  -1,  -10,  -26,  -34
2612684, 1710335845, "2024/3/13 13:17:25",  5,  -58,  1004,  0,  0,  -1,  -10,  -26,  -37
2612884, 1710335845, "2024/3/13 13:17:25",  2,  -58,  1003,  0,  0,  -1,  -11,  -27,  -36
2613084, 1710335845, "2024/3/13 13:17:25",  4,  -63,  1002,  0,  0,  -1,  -12,  -27,  -37
2613284, 1710335845, "2024/3/13 13:17:25",  3,  -63,  1003,  0,  0,  -1,  -11,  -26,  -36
2613484, 1710335846, "2024/3/13 13:17:26",  1,  -60,  1015,  0,  0,  0,  -12,  -27,  -37
2613684, 1710335846, "2024/3/13 13:17:26",  5,  -58,  999,  0,  0,  0,  -12,  -26,  -35
2613884, 1710335846, "2024/3/13 13:17:26",  2,  -53,  1008,  0,  0,  -1,  -9,  -28,  -35
2614084, 1710335846, "2024/3/13 13:17:26",  6,  -61,  1003,  0,  -1,  -1,  -11,  -27,  -36
2614284, 1710335846, "2024/3/13 13:17:26",  1,  -55,  1008,  0,  0,  -1,  -11,  -27,  -36
2614484, 1710335847, "2024/3/13 13:17:27",  7,  -54,  1001,  0,  0,  0,  -12,  -25,  -37
2614684, 1710335847, "2024/3/13 13:17:27",  9,  -57,  1003,  0,  0,  0,  -11,  -26,  -36
2614884, 1710335847, "2024/3/13 13:17:27",  2,  -55,  1006,  0,  0,  -1,  -10,  -27,  -37
2615084, 1710335847, "2024/3/13 13:17:27",  7,  -52,  998,  0,  0,  -1,  -11,  -27,  -36
2615284, 1710335847, "2024/3/13 13:17:27",  -3,  -60,  1005,  0,  0,  -1,  -10,  -27,  -37
2615484, 1710335848, "2024/3/13 13:17:28",  4,  -64,  1004,  0,  -1,  -1,  -10,  -27,  -37
2615684, 1710335848, "2024/3/13 13:17:28",  0,  -60,  1006,  0,  0,  -1,  -11,  -27,  -35
2615884, 1710335848, "2024/3/13 13:17:28",  7,  -58,  1005,  0,  0,  -1,  -11,  -25,  -36
2616084, 1710335848, "2024/3/13 13:17:28",  10,  -62,  1005,  0,  -1,  -1,  -11,  -26,  -36
2616284, 1710335848, "2024/3/13 13:17:28",  7,  -59,  1000,  0,  0,  -1,  -10,  -27,  -35
2616484, 1710335849, "2024/3/13 13:17:29",  6,  -57,  1001,  0,  0,  0,  -12,  -27,  -37
2616684, 1710335849, "2024/3/13 13:17:29",  9,  -57,  993,  0,  0,  0,  -10,  -27,  -36
2616884, 1710335849, "2024/3/13 13:17:29",  13,  -65,  1011,  0,  0,  -1,  -10,  -25,  -34
2617084, 1710335849, "2024/3/13 13:17:29",  11,  -59,  1001,  0,  0,  -1,  -10,  -28,  -36
2617284, 1710335849, "2024/3/13 13:17:29",  6,  -61,  1002,  0,  0,  -1,  -10,  -28,  -36
2617484, 1710335850, "2024/3/13 13:17:30",  3,  -54,  1003,  0,  0,  0,  -12,  -25,  -36
2617684, 1710335850, "2024/3/13 13:17:30",  2,  -55,  999,  0,  0,  -1,  -10,  -27,  -36
2617884, 1710335850, "2024/3/13 13:17:30",  7,  -64,  999,  0,  0,  0,  -9,  -25,  -36
2618084, 1710335850, "2024/3/13 13:17:30",  8,  -58,  1001,  0,  -1,  -1,  -11,  -27,  -35
2618284, 1710335850, "2024/3/13 13:17:30",  11,  -58,  1003,  0,  0,  0,  -9,  -25,  -37
2618484, 1710335851, "2024/3/13 13:17:31",  7,  -60,  1000,  0,  -1,  0,  -10,  -27,  -36
2618684, 1710335851, "2024/3/13 13:17:31",  3,  -61,  1001,  0,  0,  0,  -9,  -26,  -36
2618884, 1710335851, "2024/3/13 13:17:31",  5,  -52,  1003,  0,  0,  -1,  -11,  -27,  -37
2619084, 1710335851, "2024/3/13 13:17:31",  4,  -57,  1004,  0,  0,  0,  -9,  -26,  -37
2619284, 1710335851, "2024/3/13 13:17:31",  9,  -52,  1003,  0,  0,  0,  -9,  -27,  -36
2619484, 1710335852, "2024/3/13 13:17:32",  7,  -55,  1000,  0,  0,  0,  -10,  -26,  -37
2619684, 1710335852, "2024/3/13 13:17:32",  3,  -61,  1007,  0,  0,  -1,  -10,  -27,  -37
2619884, 1710335852, "2024/3/13 13:17:32",  6,  -65,  1001,  0,  0,  0,  -11,  -27,  -37
2620084, 1710335852, "2024/3/13 13:17:32",  3,  -58,  1006,  0,  0,  -1,  -10,  -27,  -37
2620284, 1710335852, "2024/3/13 13:17:32",  9,  -61,  1004,  0,  0,  0,  -11,  -27,  -36
2620484, 1710335853, "2024/3/13 13:17:33",  8,  -59,  1003,  0,  0,  0,  -11,  -27,  -36
2620684, 1710335853, "2024/3/13 13:17:33",  6,  -57,  1003,  0,  -1,  -1,  -10,  -28,  -35
2620884, 1710335853, "2024/3/13 13:17:33",  8,  -60,  1001,  0,  0,  -1,  -10,  -27,  -37
2621084, 1710335853, "2024/3/13 13:17:33",  11,  -57,  1005,  0,  0,  -1,  -10,  -26,  -37
2621284, 1710335853, "2024/3/13 13:17:33",  5,  -52,  1000,  0,  0,  0,  -11,  -26,  -36
2621484, 1710335854, "2024/3/13 13:17:34",  2,  -59,  1003,  0,  0,  -1,  -10,  -26,  -36
2621684, 1710335854, "2024/3/13 13:17:34",  3,  -58,  1001,  0,  0,  -1,  -11,  -25,  -36
2621884, 1710335854, "2024/3/13 13:17:34",  2,  -55,  1002,  0,  0,  -1,  -10,  -27,  -36
2622084, 1710335854, "2024/3/13 13:17:34",  9,  -57,  1003,  0,  -1,  0,  -12,  -25,  -35
2622284, 1710335854, "2024/3/13 13:17:34",  5,  -61,  1002,  0,  0,  -1,  -11,  -26,  -37
2622484, 1710335855, "2024/3/13 13:17:35",  9,  -60,  1004,  0,  -1,  -1,  -11,  -26,  -36
2622684, 1710335855, "2024/3/13 13:17:35",  8,  -65,  1004,  0,  0,  0,  -12,  -27,  -36
2622884, 1710335855, "2024/3/13 13:17:35",  6,  -53,  1001,  0,  0,  -1,  -11,  -27,  -36
2623084, 1710335855, "2024/3/13 13:17:35",  5,  -60,  1002,  0,  0,  0,  -10,  -26,  -37
2623284, 1710335855, "2024/3/13 13:17:35",  6,  -58,  1004,  0,  0,  -1,  -11,  -26,  -36
2623484, 1710335856, "2024/3/13 13:17:36",  6,  -59,  1001,  0,  0,  -1,  -10,  -26,  -35
2623684, 1710335856, "2024/3/13 13:17:36",  1,  -63,  1005,  0,  0,  0,  -11,  -27,  -35
2623884, 1710335856, "2024/3/13 13:17:36",  3,  -57,  1005,  0,  0,  -1,  -12,  -25,  -35
2624084, 1710335856, "2024/3/13 13:17:36",  0,  -57,  1000,  0,  0,  0,  -10,  -26,  -34
2624284, 1710335856, "2024/3/13 13:17:36",  6,  -61,  1007,  0,  0,  -1,  -12,  -25,  -36
2624484, 1710335857, "2024/3/13 13:17:37",  -1,  -57,  1004,  0,  0,  -1,  -11,  -26,  -37
2624684, 1710335857, "2024/3/13 13:17:37",  7,  -53,  1005,  0,  0,  0,  -10,  -26,  -36
2624884, 1710335857, "2024/3/13 13:17:37",  9,  -54,  1004,  0,  0,  -1,  -10,  -27,  -36
2625084, 1710335857, "2024/3/13 13:17:37",  5,  -59,  1002,  0,  0,  0,  -11,  -25,  -36
2625284, 1710335857, "2024/3/13 13:17:37",  7,  -62,  1003,  0,  0,  -1,  -11,  -26,  -36
2625484, 1710335858, "2024/3/13 13:17:38",  6,  -56,  1001,  0,  0,  -1,  -12,  -27,  -36
2625684, 1710335858, "2024/3/13 13:17:38",  7,  -59,  1005,  0,  0,  0,  -11,  -25,  -35
2625884, 1710335858, "2024/3/13 13:17:38",  1,  -58,  1008,  0,  0,  0,  -11,  -26,  -35
2626084, 1710335858, "2024/3/13 13:17:38",  5,  -49,  1002,  0,  0,  -1,  -10,  -27,  -35
2626284, 1710335858, "2024/3/13 13:17:38",  5,  -60,  1002,  1,  0,  -1,  -10,  -28,  -36
2626484, 1710335859, "2024/3/13 13:17:39",  6,  -60,  1006,  0,  0,  0,  -11,  -25,  -35
2626684, 1710335859, "2024/3/13 13:17:39",  7,  -55,  1002,  0,  -1,  -1,  -12,  -26,  -35
2626884, 1710335859, "2024/3/13 13:17:39",  4,  -62,  1003,  0,  0,  0,  -10,  -26,  -35
2627084, 1710335859, "2024/3/13 13:17:39",  11,  -59,  1002,  0,  0,  0,  -11,  -27,  -36
2627284, 1710335859, "2024/3/13 13:17:39",  4,  -56,  1002,  0,  0,  -1,  -11,  -27,  -36
2627484, 1710335860, "2024/3/13 13:17:40",  1,  -54,  1005,  0,  0,  -1,  -9,  -25,  -36
2627684, 1710335860, "2024/3/13 13:17:40",  2,  -51,  1002,  0,  -1,  0,  -11,  -28,  -36
2627884, 1710335860, "2024/3/13 13:17:40",  7,  -57,  1002,  0,  0,  -1,  -12,  -27,  -36
2628084, 1710335860, "2024/3/13 13:17:40",  7,  -61,  1003,  0,  0,  -1,  -11,  -28,  -36
2628284, 1710335860, "2024/3/13 13:17:40",  3,  -62,  1000,  0,  0,  -1,  -12,  -26,  -37
2628484, 1710335861, "2024/3/13 13:17:41",  8,  -59,  1000,  0,  0,  -1,  -11,  -27,  -36
2628684, 1710335861, "2024/3/13 13:17:41",  9,  -60,  1004,  0,  0,  0,  -11,  -27,  -36
2628884, 1710335861, "2024/3/13 13:17:41",  2,  -60,  1005,  0,  0,  -1,  -11,  -26,  -36
2629084, 1710335861, "2024/3/13 13:17:41",  6,  -64,  1002,  0,  0,  -1,  -12,  -26,  -36
2629284, 1710335861, "2024/3/13 13:17:41",  8,  -60,  1002,  0,  0,  0,  -10,  -27,  -37
2629484, 1710335862, "2024/3/13 13:17:42",  7,  -61,  1003,  0,  0,  0,  -10,  -28,  -36
2629684, 1710335862, "2024/3/13 13:17:42",  9,  -61,  1004,  0,  0,  -1,  -12,  -27,  -35
2629884, 1710335862, "2024/3/13 13:17:42",  7,  -51,  1004,  0,  -1,  0,  -10,  -27,  -36
2630084, 1710335862, "2024/3/13 13:17:42",  5,  -66,  1006,  0,  0,  -1,  -11,  -26,  -34
2630284, 1710335862, "2024/3/13 13:17:42",  7,  -54,  999,  0,  0,  -1,  -9,  -28,  -34
2630484, 1710335863, "2024/3/13 13:17:43",  3,  -61,  1003,  0,  0,  -1,  -11,  -25,  -37
2630684, 1710335863, "2024/3/13 13:17:43",  6,  -56,  999,  0,  0,  0,  -10,  -27,  -35
2630884, 1710335863, "2024/3/13 13:17:43",  4,  -56,  1000,  0,  0,  -1,  -11,  -27,  -35
2631084, 1710335863, "2024/3/13 13:17:43",  11,  -64,  1004,  0,  0,  -1,  -12,  -27,  -36
2631284, 1710335863, "2024/3/13 13:17:43",  5,  -61,  1005,  0,  0,  -1,  -10,  -26,  -36
2631484, 1710335864, "2024/3/13 13:17:44",  4,  -61,  1006,  0,  0,  -1,  -12,  -26,  -36
2631684, 1710335864, "2024/3/13 13:17:44",  9,  -49,  1004,  0,  -1,  -1,  -11,  -26,  -36
2631884, 1710335864, "2024/3/13 13:17:44",  8,  -59,  1002,  0,  -1,  0,  -10,  -27,  -36
2632084, 1710335864, "2024/3/13 13:17:44",  8,  -61,  1006,  0,  0,  -1,  -10,  -28,  -37
2632284, 1710335864, "2024/3/13 13:17:44",  8,  -63,  1003,  0,  0,  0,  -10,  -27,  -36
2632484, 1710335865, "2024/3/13 13:17:45",  7,  -62,  1004,  0,  0,  -1,  -9,  -27,  -36
2632684, 1710335865, "2024/3/13 13:17:45",  10,  -56,  1000,  0,  0,  0,  -9,  -25,  -35
2632884, 1710335865, "2024/3/13 13:17:45",  8,  -59,  1003,  0,  0,  -1,  -11,  -25,  -36
2633084, 1710335865, "2024/3/13 13:17:45",  8,  -64,  1002,  0,  0,  0,  -11,  -27,  -36
2633284, 1710335865, "2024/3/13 13:17:45",  6,  -56,  1001,  0,  0,  -1,  -10,  -27,  -36
2633484, 1710335866, "2024/3/13 13:17:46",  8,  -63,  1003,  0,  0,  0,  -10,  -26,  -36
2633684, 1710335866, "2024/3/13 13:17:46",  7,  -53,  999,  0,  0,  -1,  -10,  -25,  -37
2633884, 1710335866, "2024/3/13 13:17:46",  8,  -55,  1003,  0,  0,  -1,  -10,  -26,  -36
2634084, 1710335866, "2024/3/13 13:17:46",  6,  -60,  1003,  0,  0,  -1,  -11,  -26,  -35
2634284, 1710335866, "2024/3/13 13:17:46",  4,  -63,  1000,  0,  0,  -1,  -9,  -27,  -36
2634484, 1710335867, "2024/3/13 13:17:47",  3,  -60,  1002,  0,  0,  0,  -10,  -28,  -36
2634684, 1710335867, "2024/3/13 13:17:47",  5,  -61,  1004,  0,  0,  -1,  -10,  -27,  -37
2634884, 1710335867, "2024/3/13 13:17:47",  4,  -51,  1002,  0,  0,  0,  -10,  -25,  -36
2635084, 1710335867, "2024/3/13 13:17:47",  5,  -63,  1001,  0,  0,  -1,  -11,  -26,  -37
2635284, 1710335867, "2024/3/13 13:17:47",  11,  -54,  1002,  0,  0,  -1,  -10,  -28,  -36
2635484, 1710335868, "2024/3/13 13:17:48",  6,  -65,  1006,  0,  0,  -1,  -11,  -25,  -37
2635684, 1710335868, "2024/3/13 13:17:48",  8,  -57,  1003,  0,  0,  -1,  -11,  -26,  -37
2635884, 1710335868, "2024/3/13 13:17:48",  8,  -65,  1000,  0,  -1,  -1,  -10,  -27,  -37
2636084, 1710335868, "2024/3/13 13:17:48",  6,  -58,  1001,  0,  0,  -1,  -11,  -26,  -36
2636284, 1710335868, "2024/3/13 13:17:48",  6,  -53,  1002,  0,  0,  0,  -10,  -27,  -36
2636484, 1710335869, "2024/3/13 13:17:49",  5,  -59,  1000,  0,  0,  -1,  -11,  -28,  -36
2636684, 1710335869, "2024/3/13 13:17:49",  1,  -63,  1003,  0,  0,  0,  -11,  -27,  -36
2636884, 1710335869, "2024/3/13 13:17:49",  2,  -65,  1003,  0,  0,  0,  -9,  -27,  -36
2637084, 1710335869, "2024/3/13 13:17:49",  4,  -57,  1004,  0,  -1,  -1,  -9,  -26,  -37
2637284, 1710335869, "2024/3/13 13:17:49",  6,  -60,  1001,  0,  0,  -1,  -9,  -27,  -37
2637484, 1710335870, "2024/3/13 13:17:50",  3,  -57,  1003,  0,  0,  -1,  -11,  -27,  -36
2637684, 1710335870, "2024/3/13 13:17:50",  4,  -63,  1004,  0,  0,  0,  -12,  -26,  -36
2637884, 1710335870, "2024/3/13 13:17:50",  12,  -54,  1004,  0,  0,  0,  -9,  -27,  -35
2638084, 1710335870, "2024/3/13 13:17:50",  7,  -56,  1002,  0,  0,  -1,  -10,  -27,  -36
2638284, 1710335870, "2024/3/13 13:17:50",  14,  -52,  1011,  0,  0,  0,  -11,  -25,  -35
2638484, 1710335871, "2024/3/13 13:17:51",  13,  -64,  1004,  0,  0,  -1,  -10,  -26,  -35
2638684, 1710335871, "2024/3/13 13:17:51",  7,  -62,  1001,  0,  0,  -1,  -10,  -26,  -35
2638884, 1710335871, "2024/3/13 13:17:51",  7,  -57,  1000,  0,  0,  -1,  -11,  -28,  -36
2639084, 1710335871, "2024/3/13 13:17:51",  8,  -60,  1003,  0,  0,  0,  -10,  -28,  -36
2639284, 1710335871, "2024/3/13 13:17:51",  10,  -56,  1005,  0,  0,  0,  -10,  -26,  -36
2639484, 1710335872, "2024/3/13 13:17:52",  6,  -62,  1000,  0,  0,  -1,  -9,  -27,  -35
2639684, 1710335872, "2024/3/13 13:17:52",  9,  -56,  1001,  0,  0,  0,  -11,  -27,  -35
2639884, 1710335872, "2024/3/13 13:17:52",  7,  -65,  1003,  0,  0,  -1,  -10,  -27,  -35
2640084, 1710335872, "2024/3/13 13:17:52",  7,  -65,  1001,  0,  0,  0,  -10,  -28,  -36
2640284, 1710335872, "2024/3/13 13:17:52",  3,  -61,  1003,  0,  0,  0,  -10,  -27,  -34
2640484, 1710335873, "2024/3/13 13:17:53",  4,  -59,  1003,  0,  0,  0,  -10,  -27,  -37
2640684, 1710335873, "2024/3/13 13:17:53",  9,  -59,  1002,  0,  0,  0,  -10,  -25,  -36
2640884, 1710335873, "2024/3/13 13:17:53",  5,  -56,  1001,  0,  0,  -1,  -10,  -28,  -36
2641084, 1710335873, "2024/3/13 13:17:53",  3,  -65,  1006,  0,  0,  -1,  -8,  -28,  -36
2641284, 1710335873, "2024/3/13 13:17:53",  -1,  -63,  1004,  0,  0,  0,  -9,  -26,  -38
2641484, 1710335874, "2024/3/13 13:17:54",  5,  -60,  1001,  0,  0,  -1,  -10,  -27,  -34
2641684, 1710335874, "2024/3/13 13:17:54",  1,  -62,  1005,  0,  0,  0,  -11,  -26,  -35
2641884, 1710335874, "2024/3/13 13:17:54",  0,  -53,  1000,  0,  -1,  0,  -10,  -27,  -38
2642084, 1710335874, "2024/3/13 13:17:54",  4,  -59,  1002,  0,  0,  -1,  -11,  -27,  -36
2642284, 1710335874, "2024/3/13 13:17:54",  7,  -59,  1003,  0,  -1,  -1,  -9,  -28,  -36
2642484, 1710335875, "2024/3/13 13:17:55",  3,  -53,  1002,  0,  0,  0,  -10,  -24,  -36
2642684, 1710335875, "2024/3/13 13:17:55",  8,  -59,  1001,  0,  0,  0,  -11,  -27,  -37
2642884, 1710335875, "2024/3/13 13:17:55",  1,  -56,  1000,  0,  0,  -1,  -9,  -26,  -36
2643084, 1710335875, "2024/3/13 13:17:55",  3,  -56,  1005,  0,  0,  0,  -12,  -26,  -34
2643284, 1710335875, "2024/3/13 13:17:55",  3,  -51,  1001,  0,  0,  -1,  -10,  -26,  -36
2643484, 1710335876, "2024/3/13 13:17:56",  5,  -60,  1006,  0,  0,  -1,  -11,  -26,  -37
2643684, 1710335876, "2024/3/13 13:17:56",  7,  -55,  1005,  0,  0,  -1,  -10,  -24,  -36
2643884, 1710335876, "2024/3/13 13:17:56",  3,  -55,  1006,  0,  0,  -1,  -10,  -27,  -35
2644084, 1710335876, "2024/3/13 13:17:56",  6,  -58,  1002,  0,  0,  -1,  -10,  -25,  -37
2644284, 1710335876, "2024/3/13 13:17:56",  7,  -59,  999,  0,  0,  -1,  -11,  -27,  -37
2644484, 1710335877, "2024/3/13 13:17:57",  7,  -63,  1006,  0,  0,  -1,  -9,  -27,  -36
2644684, 1710335877, "2024/3/13 13:17:57",  7,  -56,  1004,  0,  0,  -1,  -10,  -27,  -36
2644884, 1710335877, "2024/3/13 13:17:57",  6,  -61,  1006,  0,  0,  -1,  -12,  -26,  -35
2645084, 1710335877, "2024/3/13 13:17:57",  14,  -63,  1009,  0,  0,  -1,  -10,  -28,  -36
2645284, 1710335877, "2024/3/13 13:17:57",  3,  -61,  1006,  0,  0,  0,  -10,  -25,  -36
2645484, 1710335878, "2024/3/13 13:17:58",  17,  -56,  1022,  0,  0,  -1,  -10,  -27,  -36
2645684, 1710335878, "2024/3/13 13:17:58",  4,  -53,  996,  0,  -1,  0,  -11,  -27,  -36
2645884, 1710335878, "2024/3/13 13:17:58",  2,  -56,  1002,  0,  0,  0,  -10,  -26,  -35
2646084, 1710335878, "2024/3/13 13:17:58",  9,  -59,  999,  0,  0,  0,  -11,  -25,  -36
2646284, 1710335878, "2024/3/13 13:17:58",  10,  -60,  1009,  0,  0,  -1,  -11,  -26,  -37
2646484, 1710335879, "2024/3/13 13:17:59",  4,  -54,  1007,  0,  0,  -1,  -10,  -25,  -36
2646684, 1710335879, "2024/3/13 13:17:59",  4,  -56,  992,  0,  0,  -1,  -9,  -26,  -36
2646884, 1710335879, "2024/3/13 13:17:59",  -3,  -58,  999,  0,  -1,  -1,  -11,  -25,  -36
2647084, 1710335879, "2024/3/13 13:17:59",  1,  -69,  996,  0,  0,  0,  -10,  -28,  -34
2647284, 1710335879, "2024/3/13 13:17:59",  -3,  -61,  1008,  0,  -1,  -1,  -11,  -28,  -37
2647484, 1710335880, "2024/3/13 13:18:0",  8,  -59,  1000,  0,  0,  0,  -10,  -27,  -36
2647684, 1710335880, "2024/3/13 13:18:0",  7,  -60,  1001,  0,  -1,  -1,  -10,  -26,  -37
2647884, 1710335880, "2024/3/13 13:18:0",  5,  -60,  1003,  0,  0,  -1,  -9,  -25,  -35
2648084, 1710335880, "2024/3/13 13:18:0",  5,  -56,  1005,  0,  0,  -1,  -10,  -26,  -37
2648284, 1710335880, "2024/3/13 13:18:0",  5,  -60,  1003,  0,  0,  0,  -11,  -27,  -37
2648484, 1710335881, "2024/3/13 13:18:1",  6,  -59,  1004,  0,  0,  0,  -11,  -26,  -36
2648684, 1710335881, "2024/3/13 13:18:1",  2,  -59,  1006,  0,  0,  -1,  -9,  -26,  -36
2648884, 1710335881, "2024/3/13 13:18:1",  9,  -52,  1005,  0,  -1,  -1,  -11,  -28,  -36
2649084, 1710335881, "2024/3/13 13:18:1",  10,  -57,  1005,  0,  0,  -1,  -11,  -26,  -35
2649284, 1710335881, "2024/3/13 13:18:1",  10,  -57,  1002,  0,  0,  -1,  -11,  -29,  -35
2649484, 1710335882, "2024/3/13 13:18:2",  -3,  -58,  1007,  0,  0,  -1,  -10,  -26,  -37
2649684, 1710335882, "2024/3/13 13:18:2",  5,  -64,  1002,  0,  0,  -1,  -10,  -25,  -34
2649884, 1710335882, "2024/3/13 13:18:2",  1,  -53,  1006,  0,  0,  -1,  -11,  -27,  -34
2650084, 1710335882, "2024/3/13 13:18:2",  10,  -60,  1000,  0,  0,  -1,  -11,  -27,  -36
2650284, 1710335882, "2024/3/13 13:18:2",  5,  -61,  1006,  0,  0,  0,  -11,  -27,  -34
2650484, 1710335883, "2024/3/13 13:18:3",  4,  -57,  1001,  0,  0,  -1,  -11,  -26,  -37
2650684, 1710335883, "2024/3/13 13:18:3",  0,  -54,  1003,  0,  0,  -1,  -9,  -26,  -35
2650884, 1710335883, "2024/3/13 13:18:3",  4,  -61,  1005,  0,  0,  0,  -11,  -25,  -35
2651084, 1710335883, "2024/3/13 13:18:3",  9,  -52,  1000,  0,  0,  0,  -11,  -28,  -35
2651284, 1710335883, "2024/3/13 13:18:3",  9,  -61,  1001,  0,  0,  -1,  -10,  -26,  -35
2651484, 1710335884, "2024/3/13 13:18:4",  -1,  -53,  1005,  0,  -1,  -1,  -13,  -26,  -36
2651684, 1710335884, "2024/3/13 13:18:4",  -1,  -61,  1000,  0,  0,  -1,  -11,  -28,  -36
2651884, 1710335884, "2024/3/13 13:18:4",  3,  -61,  1001,  0,  0,  -1,  -9,  -26,  -36
2652084, 1710335884, "2024/3/13 13:18:4",  -4,  -73,  989,  0,  -1,  0,  -10,  -27,  -36
2652284, 1710335884, "2024/3/13 13:18:4",  12,  -63,  1003,  0,  0,  -1,  -12,  -26,  -35
2652484, 1710335885, "2024/3/13 13:18:5",  11,  -65,  1006,  0,  -1,  -1,  -10,  -27,  -36
2652684, 1710335885, "2024/3/13 13:18:5",  8,  -55,  1005,  0,  0,  0,  -10,  -25,  -37
2652884, 1710335885, "2024/3/13 13:18:5",  0,  -54,  1004,  0,  0,  0,  -11,  -27,  -35
2653084, 1710335885, "2024/3/13 13:18:5",  6,  -60,  1003,  0,  0,  -1,  -12,  -27,  -36
2653284, 1710335885, "2024/3/13 13:18:5",  4,  -56,  1005,  0,  0,  0,  -11,  -26,  -36
2653484, 1710335886, "2024/3/13 13:18:6",  4,  -58,  1000,  0,  0,  0,  -11,  -25,  -37
2653684, 1710335886, "2024/3/13 13:18:6",  10,  -54,  1003,  0,  0,  0,  -9,  -25,  -35
2653884, 1710335886, "2024/3/13 13:18:6",  5,  -63,  1002,  0,  -1,  -1,  -11,  -26,  -38
2654084, 1710335886, "2024/3/13 13:18:6",  7,  -58,  1000,  0,  0,  -1,  -12,  -26,  -36
2654284, 1710335886, "2024/3/13 13:18:6",  8,  -59,  995,  0,  0,  -1,  -10,  -26,  -36
2654484, 1710335887, "2024/3/13 13:18:7",  0,  -59,  1004,  0,  0,  -1,  -9,  -27,  -36
2654684, 1710335887, "2024/3/13 13:18:7",  5,  -58,  998,  0,  0,  -1,  -12,  -27,  -36
2654884, 1710335887, "2024/3/13 13:18:7",  6,  -46,  1005,  0,  0,  -1,  -11,  -26,  -37
2655084, 1710335887, "2024/3/13 13:18:7",  4,  -62,  997,  0,  0,  -1,  -10,  -27,  -37
2655284, 1710335887, "2024/3/13 13:18:7",  6,  -57,  1008,  0,  0,  -1,  -11,  -25,  -37
2655484, 1710335888, "2024/3/13 13:18:8",  2,  -61,  998,  0,  0,  -1,  -11,  -26,  -37
2655684, 1710335888, "2024/3/13 13:18:8",  2,  -60,  1003,  0,  0,  0,  -10,  -25,  -36
2655884, 1710335888, "2024/3/13 13:18:8",  5,  -58,  1000,  0,  -1,  -1,  -11,  -27,  -37
2656084, 1710335888, "2024/3/13 13:18:8",  0,  -65,  1002,  0,  0,  -1,  -12,  -27,  -38
2656284, 1710335888, "2024/3/13 13:18:8",  0,  -60,  1004,  0,  0,  0,  -10,  -27,  -37
2656484, 1710335889, "2024/3/13 13:18:9",  4,  -52,  998,  0,  -1,  0,  -11,  -26,  -36
2656684, 1710335889, "2024/3/13 13:18:9",  -3,  -62,  1005,  1,  0,  -1,  -11,  -27,  -36
2656884, 1710335889, "2024/3/13 13:18:9",  3,  -62,  1003,  0,  0,  -1,  -10,  -27,  -33
2657084, 1710335889, "2024/3/13 13:18:9",  1,  -58,  1004,  0,  -1,  -1,  -10,  -25,  -36
2657284, 1710335889, "2024/3/13 13:18:9",  2,  -50,  1003,  0,  0,  0,  -11,  -27,  -37
2657484, 1710335890, "2024/3/13 13:18:10",  1,  -57,  1005,  0,  0,  -1,  -11,  -27,  -36
2657684, 1710335890, "2024/3/13 13:18:10",  5,  -61,  1001,  0,  0,  -1,  -11,  -26,  -36
2657884, 1710335890, "2024/3/13 13:18:10",  5,  -54,  1002,  0,  0,  -1,  -12,  -27,  -37
2658084, 1710335890, "2024/3/13 13:18:10",  3,  -56,  1003,  0,  -1,  0,  -9,  -26,  -36
2658284, 1710335890, "2024/3/13 13:18:10",  11,  -60,  1000,  0,  0,  -1,  -10,  -25,  -36
2658484, 1710335891, "2024/3/13 13:18:11",  15,  -62,  1007,  0,  0,  -1,  -11,  -26,  -36
2658684, 1710335891, "2024/3/13 13:18:11",  4,  -58,  1002,  0,  -1,  -1,  -11,  -27,  -37
2658884, 1710335891, "2024/3/13 13:18:11",  5,  -70,  1006,  0,  0,  -1,  -11,  -25,  -35
2659084, 1710335891, "2024/3/13 13:18:11",  11,  -63,  1006,  0,  0,  -1,  -11,  -26,  -37
2659284, 1710335891, "2024/3/13 13:18:11",  6,  -55,  1006,  0,  -1,  -1,  -11,  -27,  -38
2659484, 1710335892, "2024/3/13 13:18:12",  10,  -57,  1005,  0,  0,  0,  -9,  -27,  -37
2659684, 1710335892, "2024/3/13 13:18:12",  9,  -53,  1004,  0,  0,  0,  -10,  -25,  -36
2659884, 1710335892, "2024/3/13 13:18:12",  1,  -55,  1005,  0,  0,  -1,  -11,  -28,  -37
2660084, 1710335892, "2024/3/13 13:18:12",  6,  -57,  1005,  0,  -1,  0,  -10,  -25,  -36
2660284, 1710335892, "2024/3/13 13:18:12",  10,  -60,  1004,  0,  -1,  0,  -10,  -26,  -36
2660484, 1710335893, "2024/3/13 13:18:13",  4,  -58,  1003,  0,  -1,  0,  -10,  -26,  -38
2660684, 1710335893, "2024/3/13 13:18:13",  0,  -61,  994,  0,  0,  0,  -12,  -27,  -37
2660884, 1710335893, "2024/3/13 13:18:13",  6,  -62,  1000,  0,  -1,  -1,  -10,  -27,  -36
2661084, 1710335893, "2024/3/13 13:18:13",  0,  -59,  1001,  0,  0,  -1,  -9,  -27,  -36
2661284, 1710335893, "2024/3/13 13:18:13",  4,  -61,  1006,  0,  0,  0,  -11,  -27,  -36
2661484, 1710335894, "2024/3/13 13:18:14",  8,  -67,  1007,  0,  0,  -1,  -10,  -27,  -36
2661684, 1710335894, "2024/3/13 13:18:14",  10,  -63,  1008,  0,  0,  -1,  -11,  -27,  -36
2661884, 1710335894, "2024/3/13 13:18:14",  7,  -64,  1004,  0,  -1,  0,  -11,  -26,  -36
2662084, 1710335894, "2024/3/13 13:18:14",  4,  -53,  1005,  0,  0,  0,  -10,  -26,  -36
2662284, 1710335894, "2024/3/13 13:18:14",  5,  -55,  1005,  0,  0,  -1,  -10,  -27,  -36
2662484, 1710335895, "2024/3/13 13:18:15",  6,  -60,  998,  0,  0,  -1,  -10,  -28,  -37
2662684, 1710335895, "2024/3/13 13:18:15",  4,  -57,  1002,  0,  0,  0,  -11,  -28,  -36
2662884, 1710335895, "2024/3/13 13:18:15",  0,  -60,  1004,  0,  0,  -1,  -10,  -28,  -36
2663084, 1710335895, "2024/3/13 13:18:15",  3,  -60,  1002,  0,  0,  -1,  -11,  -25,  -37
2663284, 1710335895, "2024/3/13 13:18:15",  2,  -58,  1005,  0,  -1,  0,  -10,  -28,  -36
2663484, 1710335896, "2024/3/13 13:18:16",  7,  -59,  1005,  0,  0,  -1,  -12,  -26,  -36
2663684, 1710335896, "2024/3/13 13:18:16",  4,  -58,  1003,  0,  0,  -1,  -12,  -27,  -36
2663884, 1710335896, "2024/3/13 13:18:16",  8,  -58,  1003,  0,  0,  -1,  -11,  -26,  -38
2664084, 1710335896, "2024/3/13 13:18:16",  4,  -58,  1001,  0,  0,  -1,  -9,  -27,  -36
2664284, 1710335896, "2024/3/13 13:18:16",  2,  -54,  1003,  0,  0,  -1,  -10,  -27,  -36
2664484, 1710335897, "2024/3/13 13:18:17",  0,  -57,  1000,  0,  0,  -1,  -12,  -28,  -35
2664684, 1710335897, "2024/3/13 13:18:17",  4,  -57,  1001,  0,  0,  0,  -10,  -28,  -35
2664884, 1710335897, "2024/3/13 13:18:17",  3,  -61,  1003,  0,  0,  0,  -11,  -26,  -36
2665084, 1710335897, "2024/3/13 13:18:17",  5,  -57,  1006,  0,  0,  0,  -11,  -27,  -35
2665284, 1710335897, "2024/3/13 13:18:17",  6,  -56,  1003,  0,  0,  -1,  -10,  -24,  -37
2665484, 1710335898, "2024/3/13 13:18:18",  5,  -56,  1002,  0,  0,  -1,  -10,  -25,  -36
2665684, 1710335898, "2024/3/13 13:18:18",  6,  -59,  1004,  0,  0,  -1,  -10,  -26,  -36
2665884, 1710335898, "2024/3/13 13:18:18",  3,  -57,  1000,  0,  0,  -1,  -12,  -26,  -36
2666084, 1710335898, "2024/3/13 13:18:18",  9,  -59,  1005,  0,  0,  0,  -10,  -25,  -36
2666284, 1710335898, "2024/3/13 13:18:18",  7,  -57,  1001,  0,  0,  -1,  -13,  -27,  -37
2666484, 1710335899, "2024/3/13 13:18:19",  3,  -60,  1004,  0,  -1,  -1,  -11,  -28,  -38
2666684, 1710335899, "2024/3/13 13:18:19",  3,  -59,  1002,  0,  0,  0,  -10,  -27,  -37
2666884, 1710335899, "2024/3/13 13:18:19",  11,  -58,  1002,  0,  0,  -1,  -10,  -25,  -37
2667084, 1710335899, "2024/3/13 13:18:19",  7,  -60,  1003,  0,  0,  0,  -11,  -25,  -37
2667284, 1710335899, "2024/3/13 13:18:19",  3,  -57,  1005,  0,  -1,  0,  -10,  -28,  -36
2667484, 1710335900, "2024/3/13 13:18:20",  2,  -60,  1002,  0,  -1,  -1,  -11,  -27,  -36
2667684, 1710335900, "2024/3/13 13:18:20",  5,  -56,  1001,  0,  -1,  -1,  -10,  -28,  -36
2667884, 1710335900, "2024/3/13 13:18:20",  7,  -59,  1006,  0,  0,  0,  -12,  -27,  -35
2668084, 1710335900, "2024/3/13 13:18:20",  6,  -58,  1003,  0,  0,  -1,  -10,  -29,  -35
2668284, 1710335900, "2024/3/13 13:18:20",  7,  -57,  1001,  0,  0,  -1,  -11,  -26,  -37
2668484, 1710335901, "2024/3/13 13:18:21",  5,  -53,  1003,  0,  -1,  -1,  -11,  -27,  -36
2668684, 1710335901, "2024/3/13 13:18:21",  7,  -64,  1005,  0,  0,  0,  -11,  -26,  -36
2668884, 1710335901, "2024/3/13 13:18:21",  6,  -59,  1005,  0,  0,  0,  -12,  -26,  -37
2669084, 1710335901, "2024/3/13 13:18:21",  4,  -62,  1001,  0,  0,  -1,  -10,  -25,  -37
2669284, 1710335901, "2024/3/13 13:18:21",  6,  -59,  1006,  0,  0,  -1,  -11,  -28,  -35
2669484, 1710335902, "2024/3/13 13:18:22",  4,  -57,  1002,  0,  0,  -1,  -11,  -26,  -37
2669684, 1710335902, "2024/3/13 13:18:22",  6,  -64,  1006,  0,  0,  0,  -11,  -26,  -36
2669884, 1710335902, "2024/3/13 13:18:22",  12,  -64,  1003,  0,  0,  -1,  -8,  -27,  -38
2670084, 1710335902, "2024/3/13 13:18:22",  0,  -64,  1001,  0,  0,  0,  -10,  -28,  -37
2670284, 1710335902, "2024/3/13 13:18:22",  8,  -61,  1002,  0,  0,  -1,  -10,  -26,  -34
2670484, 1710335903, "2024/3/13 13:18:23",  7,  -56,  1001,  0,  0,  0,  -11,  -27,  -36
2670684, 1710335903, "2024/3/13 13:18:23",  4,  -61,  1003,  0,  0,  0,  -11,  -27,  -37
2670884, 1710335903, "2024/3/13 13:18:23",  10,  -58,  1003,  0,  0,  -1,  -9,  -26,  -36
2671084, 1710335903, "2024/3/13 13:18:23",  6,  -61,  1002,  0,  0,  -1,  -11,  -27,  -36
2671284, 1710335903, "2024/3/13 13:18:23",  6,  -55,  999,  0,  0,  0,  -10,  -27,  -35
2671484, 1710335904, "2024/3/13 13:18:24",  6,  -62,  1003,  0,  0,  0,  -11,  -24,  -36
2671684, 1710335904, "2024/3/13 13:18:24",  0,  -65,  999,  0,  0,  -1,  -11,  -25,  -39
2671884, 1710335904, "2024/3/13 13:18:24",  2,  -59,  998,  0,  -1,  -1,  -11,  -27,  -37
2672084, 1710335904, "2024/3/13 13:18:24",  12,  -62,  1003,  0,  0,  0,  -11,  -25,  -36
2672284, 1710335904, "2024/3/13 13:18:24",  13,  -61,  1003,  0,  0,  0,  -10,  -26,  -36
2672484, 1710335905, "2024/3/13 13:18:25",  5,  -58,  1005,  0,  0,  0,  -12,  -27,  -36
2672684, 1710335905, "2024/3/13 13:18:25",  12,  -60,  1007,  0,  0,  0,  -11,  -26,  -37
2672884, 1710335905, "2024/3/13 13:18:25",  19,  -61,  1007,  0,  0,  -1,  -10,  -27,  -36
2673084, 1710335905, "2024/3/13 13:18:25",  7,  -61,  997,  0,  0,  -1,  -9,  -27,  -35
2673284, 1710335905, "2024/3/13 13:18:25",  14,  -47,  1020,  0,  0,  -1,  -10,  -26,  -37
2673484, 1710335906, "2024/3/13 13:18:26",  23,  -54,  1009,  0,  0,  -1,  -11,  -27,  -36
2673684, 1710335906, "2024/3/13 13:18:26",  3,  -55,  1002,  0,  0,  -1,  -11,  -29,  -36
2673884, 1710335906, "2024/3/13 13:18:26",  6,  -63,  998,  0,  0,  -1,  -11,  -27,  -36
2674084, 1710335906, "2024/3/13 13:18:26",  7,  -62,  999,  0,  -1,  -1,  -12,  -27,  -36
2674284, 1710335906, "2024/3/13 13:18:26",  3,  -60,  1003,  0,  0,  -1,  -9,  -25,  -37
2674484, 1710335907, "2024/3/13 13:18:27",  2,  -58,  1011,  0,  0,  0,  -11,  -27,  -36
2674684, 1710335907, "2024/3/13 13:18:27",  6,  -62,  1004,  0,  0,  0,  -11,  -26,  -35
2674884, 1710335907, "2024/3/13 13:18:27",  2,  -61,  1005,  0,  0,  -1,  -11,  -27,  -36
2675084, 1710335907, "2024/3/13 13:18:27",  11,  -50,  1009,  0,  0,  0,  -12,  -27,  -36
2675284, 1710335907, "2024/3/13 13:18:27",  14,  -60,  1002,  0,  0,  -1,  -11,  -27,  -37
2675484, 1710335908, "2024/3/13 13:18:28",  10,  -61,  1007,  0,  0,  -1,  -9,  -27,  -38
2675684, 1710335908, "2024/3/13 13:18:28",  7,  -62,  1004,  0,  0,  -1,  -12,  -28,  -35
2675884, 1710335908, "2024/3/13 13:18:28",  0,  -57,  1010,  0,  -1,  0,  -11,  -27,  -37
2676084, 1710335908, "2024/3/13 13:18:28",  9,  -64,  1002,  0,  0,  -1,  -11,  -26,  -37
2676284, 1710335908, "2024/3/13 13:18:28",  13,  -55,  1002,  0,  0,  0,  -10,  -26,  -37
2676484, 1710335909, "2024/3/13 13:18:29",  5,  -55,  1004,  0,  0,  0,  -9,  -27,  -35
2676684, 1710335909, "2024/3/13 13:18:29",  2,  -60,  1002,  0,  0,  -1,  -10,  -25,  -37
2676884, 1710335909, "2024/3/13 13:18:29",  8,  -65,  1005,  0,  0,  -1,  -10,  -25,  -36
2677084, 1710335909, "2024/3/13 13:18:29",  14,  -48,  1006,  0,  0,  0,  -10,  -28,  -36
2677284, 1710335909, "2024/3/13 13:18:29",  3,  -56,  1008,  0,  0,  -1,  -10,  -27,  -37
2677484, 1710335910, "2024/3/13 13:18:30",  10,  -65,  1002,  0,  0,  -1,  -10,  -27,  -37
2677684, 1710335910, "2024/3/13 13:18:30",  7,  -60,  1001,  0,  -1,  -1,  -11,  -26,  -36
2677884, 1710335910, "2024/3/13 13:18:30",  11,  -61,  1001,  0,  0,  -1,  -10,  -25,  -37
2678084, 1710335910, "2024/3/13 13:18:30",  4,  -63,  1003,  0,  0,  -1,  -12,  -25,  -36
2678284, 1710335910, "2024/3/13 13:18:30",  5,  -58,  1004,  0,  0,  0,  -11,  -25,  -36
2678484, 1710335911, "2024/3/13 13:18:31",  7,  -58,  1002,  0,  0,  -1,  -12,  -26,  -37
2678684, 1710335911, "2024/3/13 13:18:31",  10,  -54,  1004,  0,  0,  -1,  -10,  -25,  -37
2678884, 1710335911, "2024/3/13 13:18:31",  8,  -63,  1003,  0,  0,  0,  -11,  -26,  -37
2679084, 1710335911, "2024/3/13 13:18:31",  7,  -64,  1006,  0,  0,  -1,  -9,  -27,  -36
2679284, 1710335911, "2024/3/13 13:18:31",  18,  -52,  1021,  0,  0,  0,  -12,  -26,  -37
2679484, 1710335912, "2024/3/13 13:18:32",  3,  -61,  995,  0,  -1,  -1,  -10,  -27,  -36
2679684, 1710335912, "2024/3/13 13:18:32",  14,  -61,  1002,  0,  0,  -1,  -10,  -26,  -38
2679884, 1710335912, "2024/3/13 13:18:32",  2,  -55,  998,  0,  0,  -1,  -10,  -27,  -36
2680084, 1710335912, "2024/3/13 13:18:32",  10,  -58,  1000,  0,  0,  -1,  -12,  -27,  -37
2680284, 1710335912, "2024/3/13 13:18:32",  15,  -63,  1001,  0,  0,  0,  -9,  -26,  -37
2680484, 1710335913, "2024/3/13 13:18:33",  9,  -56,  1000,  0,  0,  0,  -10,  -27,  -37
2680684, 1710335913, "2024/3/13 13:18:33",  3,  -56,  1002,  0,  -1,  0,  -10,  -26,  -38
2680884, 1710335913, "2024/3/13 13:18:33",  8,  -57,  1004,  0,  0,  -1,  -9,  -27,  -37
2681084, 1710335913, "2024/3/13 13:18:33",  4,  -63,  1003,  0,  0,  -1,  -9,  -27,  -35
2681284, 1710335913, "2024/3/13 13:18:33",  4,  -55,  1005,  0,  0,  -1,  -11,  -26,  -36
2681484, 1710335914, "2024/3/13 13:18:34",  6,  -53,  1006,  0,  0,  0,  -11,  -26,  -35
2681684, 1710335914, "2024/3/13 13:18:34",  3,  -66,  1008,  0,  -1,  0,  -10,  -26,  -36
2681884, 1710335914, "2024/3/13 13:18:34",  11,  -65,  1000,  0,  0,  -1,  -11,  -26,  -37
2682084, 1710335914, "2024/3/13 13:18:34",  0,  -61,  1002,  0,  0,  0,  -12,  -25,  -36
2682284, 1710335914, "2024/3/13 13:18:34",  6,  -60,  1006,  1,  -1,  -1,  -10,  -27,  -36
2682484, 1710335915, "2024/3/13 13:18:35",  9,  -56,  1003,  0,  0,  -1,  -12,  -27,  -36
2682684, 1710335915, "2024/3/13 13:18:35",  6,  -63,  1011,  0,  0,  -1,  -12,  -27,  -36
2682884, 1710335915, "2024/3/13 13:18:35",  10,  -55,  1005,  0,  0,  -1,  -9,  -26,  -36
2683084, 1710335915, "2024/3/13 13:18:35",  1,  -57,  996,  0,  -1,  -1,  -10,  -28,  -36
2683284, 1710335915, "2024/3/13 13:18:35",  4,  -59,  999,  0,  0,  -1,  -10,  -27,  -37
2683484, 1710335916, "2024/3/13 13:18:36",  -1,  -63,  999,  0,  0,  0,  -10,  -27,  -37
2683684, 1710335916, "2024/3/13 13:18:36",  8,  -62,  1002,  0,  0,  -1,  -10,  -27,  -36
2683884, 1710335916, "2024/3/13 13:18:36",  7,  -66,  1004,  0,  0,  -1,  -11,  -25,  -36
2684084, 1710335916, "2024/3/13 13:18:36",  0,  -58,  1005,  0,  -1,  -1,  -11,  -26,  -37
2684284, 1710335916, "2024/3/13 13:18:36",  2,  -58,  1003,  0,  0,  -1,  -11,  -26,  -36
2684484, 1710335917, "2024/3/13 13:18:37",  13,  -57,  1000,  0,  0,  0,  -11,  -26,  -37
2684684, 1710335917, "2024/3/13 13:18:37",  3,  -63,  1000,  0,  0,  0,  -11,  -26,  -37
2684884, 1710335917, "2024/3/13 13:18:37",  12,  -61,  1008,  0,  -1,  0,  -10,  -26,  -37
2685084, 1710335917, "2024/3/13 13:18:37",  7,  -55,  999,  0,  0,  0,  -10,  -26,  -37
2685284, 1710335917, "2024/3/13 13:18:37",  5,  -62,  1001,  0,  0,  0,  -11,  -27,  -36
2685484, 1710335918, "2024/3/13 13:18:38",  1,  -56,  1000,  0,  0,  0,  -11,  -26,  -37
2685684, 1710335918, "2024/3/13 13:18:38",  7,  -55,  1002,  0,  0,  -1,  -10,  -28,  -36
2685884, 1710335918, "2024/3/13 13:18:38",  4,  -58,  1003,  0,  0,  0,  -9,  -25,  -38
2686084, 1710335918, "2024/3/13 13:18:38",  7,  -60,  1004,  0,  0,  -1,  -11,  -27,  -37
2686284, 1710335918, "2024/3/13 13:18:38",  9,  -62,  1001,  0,  0,  -1,  -11,  -27,  -36
2686484, 1710335919, "2024/3/13 13:18:39",  1,  -61,  1000,  0,  0,  0,  -11,  -28,  -36
2686684, 1710335919, "2024/3/13 13:18:39",  1,  -57,  1002,  0,  0,  -1,  -10,  -27,  -36
2686884, 1710335919, "2024/3/13 13:18:39",  -1,  -56,  1007,  0,  -1,  0,  -10,  -24,  -38
2687084, 1710335919, "2024/3/13 13:18:39",  0,  -59,  1003,  0,  0,  -1,  -11,  -28,  -36
2687284, 1710335919, "2024/3/13 13:18:39",  2,  -59,  1004,  0,  0,  -1,  -10,  -28,  -37
2687484, 1710335920, "2024/3/13 13:18:40",  0,  -62,  1004,  0,  -1,  -1,  -11,  -27,  -37
2687684, 1710335920, "2024/3/13 13:18:40",  5,  -59,  1001,  0,  -1,  -1,  -11,  -27,  -36
2687884, 1710335920, "2024/3/13 13:18:40",  4,  -59,  1001,  0,  0,  -1,  -10,  -27,  -36
2688084, 1710335920, "2024/3/13 13:18:40",  8,  -58,  1000,  0,  0,  0,  -9,  -28,  -37
2688284, 1710335920, "2024/3/13 13:18:40",  6,  -57,  1005,  0,  0,  0,  -10,  -27,  -35
2688484, 1710335921, "2024/3/13 13:18:41",  3,  -60,  1003,  0,  0,  0,  -11,  -25,  -35
2688684, 1710335921, "2024/3/13 13:18:41",  8,  -53,  1000,  0,  0,  -1,  -10,  -26,  -36
2688884, 1710335921, "2024/3/13 13:18:41",  7,  -58,  1004,  0,  0,  -1,  -12,  -28,  -36
2689084, 1710335921, "2024/3/13 13:18:41",  0,  -60,  1005,  0,  -1,  -1,  -10,  -26,  -36
2689284, 1710335921, "2024/3/13 13:18:41",  5,  -60,  1004,  0,  0,  0,  -11,  -26,  -35
2689484, 1710335922, "2024/3/13 13:18:42",  0,  -58,  1009,  0,  0,  -1,  -10,  -26,  -36
2689684, 1710335922, "2024/3/13 13:18:42",  3,  -58,  1003,  0,  0,  0,  -10,  -26,  -35
2689884, 1710335922, "2024/3/13 13:18:42",  5,  -61,  1002,  0,  0,  0,  -11,  -27,  -37
2690084, 1710335922, "2024/3/13 13:18:42",  1,  -57,  998,  0,  0,  -1,  -11,  -27,  -37
2690284, 1710335922, "2024/3/13 13:18:42",  6,  -57,  1000,  0,  0,  -1,  -9,  -27,  -36
2690484, 1710335923, "2024/3/13 13:18:43",  0,  -64,  1003,  0,  0,  0,  -9,  -26,  -35
2690684, 1710335923, "2024/3/13 13:18:43",  5,  -61,  1005,  0,  0,  -1,  -11,  -26,  -35
2690884, 1710335923, "2024/3/13 13:18:43",  -1,  -56,  998,  0,  0,  -1,  -11,  -27,  -36
2691084, 1710335923, "2024/3/13 13:18:43",  2,  -59,  1005,  0,  -1,  -1,  -10,  -27,  -37
2691284, 1710335923, "2024/3/13 13:18:43",  1,  -58,  1004,  0,  0,  -1,  -10,  -26,  -36
2691484, 1710335924, "2024/3/13 13:18:44",  -1,  -65,  1005,  0,  -1,  -1,  -9,  -26,  -37
2691684, 1710335924, "2024/3/13 13:18:44",  -4,  -57,  1005,  0,  0,  0,  -11,  -29,  -36
2691884, 1710335924, "2024/3/13 13:18:44",  1,  -57,  1004,  0,  0,  0,  -11,  -25,  -35
2692084, 1710335924, "2024/3/13 13:18:44",  0,  -58,  1003,  0,  0,  -1,  -13,  -27,  -36
2692284, 1710335924, "2024/3/13 13:18:44",  0,  -58,  1005,  0,  0,  0,  -10,  -26,  -36
2692484, 1710335925, "2024/3/13 13:18:45",  1,  -63,  1005,  0,  0,  0,  -11,  -26,  -36
2692684, 1710335925, "2024/3/13 13:18:45",  5,  -59,  1006,  0,  -1,  0,  -11,  -25,  -36
2692884, 1710335925, "2024/3/13 13:18:45",  5,  -56,  1002,  0,  0,  0,  -11,  -27,  -37
2693084, 1710335925, "2024/3/13 13:18:45",  5,  -55,  1004,  0,  0,  -1,  -11,  -26,  -36
2693284, 1710335925, "2024/3/13 13:18:45",  5,  -60,  1005,  0,  -1,  -1,  -11,  -26,  -35
2693484, 1710335926, "2024/3/13 13:18:46",  10,  -58,  1003,  0,  0,  0,  -10,  -27,  -36
2693684, 1710335926, "2024/3/13 13:18:46",  5,  -61,  1005,  0,  0,  0,  -11,  -29,  -37
2693884, 1710335926, "2024/3/13 13:18:46",  6,  -58,  1002,  0,  0,  0,  -11,  -26,  -38
2694084, 1710335926, "2024/3/13 13:18:46",  8,  -58,  1007,  0,  -1,  -1,  -11,  -26,  -35
2694284, 1710335926, "2024/3/13 13:18:46",  10,  -61,  1002,  0,  -1,  0,  -10,  -26,  -35
2694484, 1710335927, "2024/3/13 13:18:47",  1,  -59,  1004,  0,  0,  -1,  -11,  -28,  -36
2694684, 1710335927, "2024/3/13 13:18:47",  7,  -56,  1005,  0,  0,  -1,  -11,  -26,  -35
2694884, 1710335927, "2024/3/13 13:18:47",  5,  -57,  1002,  0,  0,  -1,  -10,  -27,  -36
2695084, 1710335927, "2024/3/13 13:18:47",  3,  -67,  1006,  0,  0,  0,  -10,  -26,  -37
2695284, 1710335927, "2024/3/13 13:18:47",  8,  -57,  1001,  0,  0,  -1,  -10,  -27,  -37
2695484, 1710335928, "2024/3/13 13:18:48",  8,  -68,  1005,  0,  0,  -1,  -9,  -28,  -37
2695684, 1710335928, "2024/3/13 13:18:48",  9,  -60,  1003,  0,  -1,  -1,  -9,  -27,  -35
2695884, 1710335928, "2024/3/13 13:18:48",  6,  -55,  1003,  0,  0,  -1,  -10,  -27,  -34
2696084, 1710335928, "2024/3/13 13:18:48",  6,  -64,  1001,  0,  0,  0,  -11,  -28,  -37
2696284, 1710335928, "2024/3/13 13:18:48",  5,  -61,  1004,  0,  0,  -1,  -11,  -26,  -37
2696484, 1710335929, "2024/3/13 13:18:49",  2,  -66,  1003,  0,  0,  -1,  -11,  -27,  -36
2696684, 1710335929, "2024/3/13 13:18:49",  5,  -61,  1003,  0,  0,  0,  -10,  -26,  -36
2696884, 1710335929, "2024/3/13 13:18:49",  7,  -57,  1001,  0,  0,  -1,  -10,  -27,  -36
2697084, 1710335929, "2024/3/13 13:18:49",  14,  -60,  1001,  0,  0,  -1,  -12,  -28,  -36
2697284, 1710335929, "2024/3/13 13:18:49",  13,  -55,  1001,  0,  0,  -1,  -10,  -26,  -37
2697484, 1710335930, "2024/3/13 13:18:50",  1,  -63,  1003,  0,  0,  0,  -11,  -27,  -36
2697684, 1710335930, "2024/3/13 13:18:50",  5,  -64,  1002,  0,  0,  0,  -9,  -26,  -36
2697884, 1710335930, "2024/3/13 13:18:50",  0,  -61,  991,  0,  0,  -1,  -11,  -28,  -37
2698084, 1710335930, "2024/3/13 13:18:50",  3,  -54,  1004,  0,  0,  0,  -10,  -28,  -35
2698284, 1710335930, "2024/3/13 13:18:50",  7,  -54,  1005,  1,  0,  -1,  -11,  -26,  -38
2698484, 1710335931, "2024/3/13 13:18:51",  3,  -59,  1008,  0,  0,  -1,  -10,  -27,  -36
2698684, 1710335931, "2024/3/13 13:18:51",  1,  -63,  1004,  0,  0,  -1,  -11,  -27,  -34
2698884, 1710335931, "2024/3/13 13:18:51",  2,  -58,  1007,  0,  0,  0,  -11,  -27,  -38
2699084, 1710335931, "2024/3/13 13:18:51",  5,  -63,  1000,  0,  0,  -1,  -12,  -26,  -37
2699284, 1710335931, "2024/3/13 13:18:51",  7,  -64,  1006,  0,  0,  0,  -10,  -26,  -36
2699484, 1710335932, "2024/3/13 13:18:52",  4,  -57,  1003,  0,  0,  0,  -10,  -27,  -36
2699684, 1710335932, "2024/3/13 13:18:52",  1,  -55,  1005,  0,  -1,  -1,  -9,  -25,  -36
2699884, 1710335932, "2024/3/13 13:18:52",  2,  -60,  1005,  0,  0,  0,  -12,  -28,  -37
2700084, 1710335932, "2024/3/13 13:18:52",  4,  -62,  1004,  0,  0,  -1,  -9,  -26,  -36
2700284, 1710335932, "2024/3/13 13:18:52",  0,  -48,  1004,  0,  0,  -1,  -12,  -26,  -37
2700484, 1710335933, "2024/3/13 13:18:53",  0,  -55,  1004,  0,  0,  -1,  -10,  -27,  -36
2700684, 1710335933, "2024/3/13 13:18:53",  -1,  -57,  1001,  0,  0,  -1,  -12,  -26,  -37
2700884, 1710335933, "2024/3/13 13:18:53",  11,  -56,  1005,  0,  0,  0,  -10,  -26,  -35
2701084, 1710335933, "2024/3/13 13:18:53",  6,  -56,  1003,  1,  0,  0,  -11,  -26,  -38
2701284, 1710335933, "2024/3/13 13:18:53",  0,  -58,  1006,  0,  0,  -1,  -12,  -26,  -36
2701484, 1710335934, "2024/3/13 13:18:54",  10,  -54,  1003,  0,  0,  -1,  -11,  -26,  -36
2701684, 1710335934, "2024/3/13 13:18:54",  3,  -58,  1005,  0,  0,  -1,  -10,  -27,  -37
2701884, 1710335934, "2024/3/13 13:18:54",  7,  -59,  1002,  0,  0,  0,  -10,  -26,  -37
2702084, 1710335934, "2024/3/13 13:18:54",  6,  -53,  1003,  0,  0,  0,  -11,  -26,  -37
2702284, 1710335934, "2024/3/13 13:18:54",  4,  -58,  1003,  0,  0,  -1,  -10,  -27,  -36
2702484, 1710335935, "2024/3/13 13:18:55",  4,  -53,  1002,  0,  0,  -1,  -12,  -26,  -38
2702684, 1710335935, "2024/3/13 13:18:55",  7,  -62,  1002,  0,  0,  0,  -13,  -26,  -36
2702884, 1710335935, "2024/3/13 13:18:55",  5,  -61,  1003,  0,  0,  0,  -12,  -27,  -36
2703084, 1710335935, "2024/3/13 13:18:55",  5,  -65,  999,  0,  0,  0,  -10,  -26,  -35
2703284, 1710335935, "2024/3/13 13:18:55",  -2,  -60,  1006,  0,  0,  -1,  -10,  -26,  -36
2703484, 1710335936, "2024/3/13 13:18:56",  5,  -58,  1007,  0,  -1,  -1,  -12,  -27,  -37
2703684, 1710335936, "2024/3/13 13:18:56",  7,  -59,  1002,  0,  -1,  0,  -11,  -27,  -36
2703884, 1710335936, "2024/3/13 13:18:56",  13,  -61,  998,  0,  0,  0,  -11,  -24,  -36
2704084, 1710335936, "2024/3/13 13:18:56",  5,  -56,  1000,  0,  0,  -1,  -12,  -27,  -35
2704284, 1710335936, "2024/3/13 13:18:56",  7,  -52,  1007,  0,  0,  -1,  -11,  -25,  -37
2704484, 1710335937, "2024/3/13 13:18:57",  5,  -56,  1004,  0,  0,  -1,  -10,  -27,  -37
2704684, 1710335937, "2024/3/13 13:18:57",  2,  -60,  1000,  0,  -1,  0,  -11,  -25,  -37
2704884, 1710335937, "2024/3/13 13:18:57",  2,  -64,  1003,  0,  0,  0,  -10,  -26,  -35
2705084, 1710335937, "2024/3/13 13:18:57",  3,  -67,  1001,  0,  0,  -1,  -9,  -27,  -36
2705284, 1710335937, "2024/3/13 13:18:57",  1,  -63,  1005,  0,  0,  0,  -10,  -27,  -37
2705484, 1710335938, "2024/3/13 13:18:58",  7,  -59,  1002,  0,  0,  -1,  -10,  -27,  -35
2705684, 1710335938, "2024/3/13 13:18:58",  11,  -63,  1004,  0,  0,  -1,  -13,  -27,  -36
2705884, 1710335938, "2024/3/13 13:18:58",  9,  -58,  1005,  0,  0,  0,  -10,  -27,  -36
2706084, 1710335938, "2024/3/13 13:18:58",  3,  -59,  1001,  0,  0,  0,  -9,  -29,  -36
2706284, 1710335938, "2024/3/13 13:18:58",  6,  -55,  1003,  0,  0,  -1,  -11,  -27,  -36
2706484, 1710335939, "2024/3/13 13:18:59",  5,  -54,  1006,  0,  -1,  -1,  -11,  -26,  -36
2706684, 1710335939, "2024/3/13 13:18:59",  10,  -55,  1002,  0,  0,  -1,  -12,  -27,  -35
2706884, 1710335939, "2024/3/13 13:18:59",  7,  -56,  1005,  0,  0,  0,  -11,  -25,  -36
2707084, 1710335939, "2024/3/13 13:18:59",  5,  -60,  1005,  0,  0,  -1,  -11,  -27,  -36
2707284, 1710335939, "2024/3/13 13:18:59",  3,  -60,  1004,  0,  0,  0,  -10,  -25,  -37
2707484, 1710335940, "2024/3/13 13:19:0",  11,  -55,  1005,  0,  0,  -1,  -11,  -28,  -36
2707684, 1710335940, "2024/3/13 13:19:0",  8,  -58,  1000,  0,  -1,  -1,  -11,  -26,  -35
2707884, 1710335940, "2024/3/13 13:19:0",  6,  -57,  1005,  0,  0,  -1,  -11,  -26,  -36
2708084, 1710335940, "2024/3/13 13:19:0",  7,  -59,  1004,  0,  0,  0,  -11,  -27,  -38
2708284, 1710335940, "2024/3/13 13:19:0",  4,  -54,  1001,  0,  0,  0,  -10,  -26,  -37
2708484, 1710335941, "2024/3/13 13:19:1",  4,  -61,  1002,  0,  0,  -1,  -10,  -28,  -35
2708684, 1710335941, "2024/3/13 13:19:1",  5,  -66,  1009,  0,  0,  0,  -12,  -25,  -36
2708884, 1710335941, "2024/3/13 13:19:1",  6,  -57,  1005,  0,  0,  -1,  -11,  -25,  -37
2709084, 1710335941, "2024/3/13 13:19:1",  7,  -61,  1003,  0,  0,  -1,  -11,  -27,  -37
2709284, 1710335941, "2024/3/13 13:19:1",  7,  -63,  1005,  0,  0,  -1,  -12,  -26,  -36
2709484, 1710335942, "2024/3/13 13:19:2",  2,  -56,  1004,  0,  0,  0,  -12,  -27,  -35
2709684, 1710335942, "2024/3/13 13:19:2",  5,  -55,  1005,  0,  0,  0,  -11,  -27,  -36
2709884, 1710335942, "2024/3/13 13:19:2",  8,  -64,  1006,  0,  -1,  -1,  -10,  -27,  -36
2710084, 1710335942, "2024/3/13 13:19:2",  4,  -60,  1007,  0,  0,  -1,  -12,  -27,  -36
2710284, 1710335942, "2024/3/13 13:19:2",  8,  -64,  1004,  0,  0,  0,  -11,  -26,  -36
2710484, 1710335943, "2024/3/13 13:19:3",  5,  -61,  1003,  0,  0,  0,  -11,  -26,  -36
2710684, 1710335943, "2024/3/13 13:19:3",  7,  -57,  1003,  0,  0,  0,  -11,  -26,  -36
2710884, 1710335943, "2024/3/13 13:19:3",  1,  -63,  1003,  0,  0,  0,  -10,  -27,  -37
2711084, 1710335943, "2024/3/13 13:19:3",  6,  -56,  1002,  0,  0,  0,  -11,  -26,  -36
2711284, 1710335943, "2024/3/13 13:19:3",  11,  -64,  1004,  0,  -1,  -1,  -10,  -27,  -37
2711484, 1710335944, "2024/3/13 13:19:4",  6,  -60,  1004,  0,  -1,  -1,  -12,  -26,  -36
2711684, 1710335944, "2024/3/13 13:19:4",  5,  -60,  1007,  0,  0,  -1,  -10,  -26,  -35
2711884, 1710335944, "2024/3/13 13:19:4",  6,  -59,  1005,  0,  0,  -1,  -11,  -27,  -37
2712084, 1710335944, "2024/3/13 13:19:4",  6,  -64,  1008,  0,  0,  0,  -11,  -26,  -36
2712284, 1710335944, "2024/3/13 13:19:4",  8,  -65,  1008,  0,  0,  -1,  -11,  -26,  -38
2712484, 1710335945, "2024/3/13 13:19:5",  6,  -62,  1005,  0,  0,  -1,  -12,  -27,  -36
2712684, 1710335945, "2024/3/13 13:19:5",  2,  -61,  994,  0,  0,  -1,  -10,  -26,  -37
2712884, 1710335945, "2024/3/13 13:19:5",  10,  -61,  1002,  0,  0,  -1,  -11,  -28,  -36
2713084, 1710335945, "2024/3/13 13:19:5",  3,  -62,  1000,  0,  0,  -1,  -9,  -26,  -36
2713284, 1710335945, "2024/3/13 13:19:5",  4,  -54,  1000,  0,  -1,  -1,  -11,  -27,  -36
2713484, 1710335946, "2024/3/13 13:19:6",  6,  -58,  1002,  0,  0,  0,  -11,  -27,  -36
2713684, 1710335946, "2024/3/13 13:19:6",  7,  -52,  1002,  0,  0,  -1,  -11,  -25,  -36
2713884, 1710335946, "2024/3/13 13:19:6",  4,  -57,  1003,  0,  0,  -1,  -12,  -27,  -36
2714084, 1710335946, "2024/3/13 13:19:6",  2,  -55,  1002,  0,  0,  0,  -10,  -28,  -36
2714284, 1710335946, "2024/3/13 13:19:6",  7,  -57,  1002,  0,  0,  -1,  -12,  -25,  -37
2714484, 1710335947, "2024/3/13 13:19:7",  8,  -63,  999,  0,  0,  0,  -11,  -25,  -35
2714684, 1710335947, "2024/3/13 13:19:7",  1,  -51,  1013,  0,  0,  0,  -11,  -28,  -34
2714884, 1710335947, "2024/3/13 13:19:7",  5,  -69,  995,  0,  -1,  0,  -11,  -28,  -36
2715084, 1710335947, "2024/3/13 13:19:7",  10,  -61,  1003,  0,  0,  -1,  -10,  -26,  -37
2715284, 1710335947, "2024/3/13 13:19:7",  7,  -65,  1006,  0,  0,  -1,  -10,  -26,  -36
2715484, 1710335948, "2024/3/13 13:19:8",  11,  -54,  1005,  0,  0,  -1,  -10,  -27,  -37
2715684, 1710335948, "2024/3/13 13:19:8",  7,  -59,  1003,  0,  0,  0,  -11,  -26,  -37
2715884, 1710335948, "2024/3/13 13:19:8",  8,  -49,  1004,  0,  0,  -1,  -11,  -27,  -39
2716084, 1710335948, "2024/3/13 13:19:8",  17,  -65,  988,  1,  0,  0,  -10,  -27,  -37
2716284, 1710335948, "2024/3/13 13:19:8",  11,  -56,  1004,  0,  0,  0,  -9,  -25,  -36
2716484, 1710335949, "2024/3/13 13:19:9",  33,  -62,  1012,  0,  0,  0,  -10,  -26,  -35
2716684, 1710335949, "2024/3/13 13:19:9",  22,  -67,  1003,  0,  0,  0,  -11,  -25,  -36
2716884, 1710335949, "2024/3/13 13:19:9",  7,  -55,  999,  0,  -1,  0,  -11,  -26,  -37
2717084, 1710335949, "2024/3/13 13:19:9",  6,  -62,  1003,  0,  0,  0,  -11,  -27,  -36
2717284, 1710335949, "2024/3/13 13:19:9",  10,  -62,  1005,  0,  0,  -1,  -10,  -26,  -36
2717484, 1710335950, "2024/3/13 13:19:10",  8,  -60,  1004,  0,  -1,  0,  -10,  -26,  -36
2717684, 1710335950, "2024/3/13 13:19:10",  10,  -62,  1006,  0,  0,  0,  -11,  -27,  -37
2717884, 1710335950, "2024/3/13 13:19:10",  8,  -59,  1003,  0,  0,  0,  -9,  -27,  -36
2718084, 1710335950, "2024/3/13 13:19:10",  9,  -58,  1005,  0,  0,  0,  -12,  -26,  -36
2718284, 1710335950, "2024/3/13 13:19:10",  5,  -61,  1002,  0,  0,  0,  -11,  -28,  -36
2718484, 1710335951, "2024/3/13 13:19:11",  8,  -56,  1008,  0,  0,  -1,  -10,  -27,  -37
2718684, 1710335951, "2024/3/13 13:19:11",  8,  -56,  1009,  0,  0,  -1,  -10,  -27,  -36
2718884, 1710335951, "2024/3/13 13:19:11",  9,  -62,  1009,  0,  0,  0,  -11,  -27,  -36
2719084, 1710335951, "2024/3/13 13:19:11",  0,  -60,  1003,  0,  0,  -1,  -11,  -25,  -37
2719284, 1710335951, "2024/3/13 13:19:11",  9,  -55,  1003,  0,  0,  0,  -10,  -27,  -35
2719484, 1710335952, "2024/3/13 13:19:12",  10,  -60,  1004,  0,  0,  -1,  -10,  -26,  -36
2719684, 1710335952, "2024/3/13 13:19:12",  3,  -55,  1003,  0,  0,  -1,  -11,  -27,  -36
2719884, 1710335952, "2024/3/13 13:19:12",  8,  -51,  1001,  0,  0,  -1,  -11,  -27,  -36
2720084, 1710335952, "2024/3/13 13:19:12",  10,  -54,  1003,  0,  0,  0,  -11,  -27,  -37
2720284, 1710335952, "2024/3/13 13:19:12",  4,  -55,  1000,  0,  0,  0,  -9,  -25,  -36
2720484, 1710335953, "2024/3/13 13:19:13",  3,  -54,  1003,  0,  0,  -1,  -11,  -28,  -35
2720684, 1710335953, "2024/3/13 13:19:13",  7,  -57,  1002,  0,  -1,  0,  -11,  -27,  -36
2720884, 1710335953, "2024/3/13 13:19:13",  4,  -54,  1001,  0,  0,  -1,  -12,  -25,  -36
2721084, 1710335953, "2024/3/13 13:19:13",  3,  -53,  991,  0,  0,  -1,  -10,  -26,  -37
2721284, 1710335953, "2024/3/13 13:19:13",  4,  -55,  999,  0,  0,  -1,  -11,  -28,  -35
2721484, 1710335954, "2024/3/13 13:19:14",  -3,  -56,  1003,  0,  0,  -1,  -10,  -26,  -37
2721684, 1710335954, "2024/3/13 13:19:14",  2,  -53,  1000,  0,  0,  -1,  -11,  -28,  -35
2721884, 1710335954, "2024/3/13 13:19:14",  2,  -54,  999,  0,  0,  0,  -11,  -25,  -37
2722084, 1710335954, "2024/3/13 13:19:14",  3,  -63,  1005,  0,  0,  0,  -11,  -28,  -37
2722284, 1710335954, "2024/3/13 13:19:14",  9,  -62,  1004,  0,  0,  -1,  -10,  -26,  -36
2722484, 1710335955, "2024/3/13 13:19:15",  4,  -63,  1007,  0,  -1,  -1,  -11,  -26,  -36
2722684, 1710335955, "2024/3/13 13:19:15",  12,  -68,  1003,  0,  0,  0,  -11,  -24,  -36
2722884, 1710335955, "2024/3/13 13:19:15",  26,  -56,  1001,  1,  0,  0,  -10,  -27,  -36
2723084, 1710335955, "2024/3/13 13:19:15",  18,  -57,  1002,  0,  -1,  0,  -12,  -25,  -37
2723284, 1710335955, "2024/3/13 13:19:15",  17,  -62,  1002,  0,  0,  -1,  -12,  -26,  -36
2723484, 1710335956, "2024/3/13 13:19:16",  12,  -54,  1016,  0,  0,  0,  -10,  -25,  -35
2723684, 1710335956, "2024/3/13 13:19:16",  4,  -54,  1005,  0,  0,  0,  -9,  -27,  -37
2723884, 1710335956, "2024/3/13 13:19:16",  8,  -59,  1004,  0,  0,  0,  -10,  -27,  -35
2724084, 1710335956, "2024/3/13 13:19:16",  7,  -60,  1002,  0,  0,  0,  -10,  -26,  -35
2724284, 1710335956, "2024/3/13 13:19:16",  2,  -55,  1001,  0,  -1,  0,  -9,  -25,  -36
2724484, 1710335957, "2024/3/13 13:19:17",  6,  -60,  999,  0,  0,  0,  -9,  -25,  -37
2724684, 1710335957, "2024/3/13 13:19:17",  7,  -63,  1004,  0,  0,  -1,  -10,  -26,  -36
2724884, 1710335957, "2024/3/13 13:19:17",  2,  -55,  1002,  0,  0,  -1,  -12,  -25,  -36
2725084, 1710335957, "2024/3/13 13:19:17",  3,  -58,  1000,  0,  0,  -1,  -11,  -26,  -35
2725284, 1710335957, "2024/3/13 13:19:17",  0,  -56,  1004,  0,  0,  -1,  -11,  -27,  -37
2725484, 1710335958, "2024/3/13 13:19:18",  6,  -59,  1003,  0,  0,  0,  -11,  -28,  -36
2725684, 1710335958, "2024/3/13 13:19:18",  3,  -58,  1015,  0,  0,  0,  -10,  -26,  -37
2725884, 1710335958, "2024/3/13 13:19:18",  1,  -59,  1007,  0,  0,  0,  -10,  -26,  -36
2726084, 1710335958, "2024/3/13 13:19:18",  0,  -58,  1002,  0,  0,  -1,  -12,  -27,  -37
2726284, 1710335958, "2024/3/13 13:19:18",  7,  -58,  1005,  0,  0,  -1,  -11,  -26,  -36
2726484, 1710335959, "2024/3/13 13:19:19",  7,  -64,  1003,  0,  0,  -1,  -9,  -27,  -36
2726684, 1710335959, "2024/3/13 13:19:19",  4,  -63,  1002,  0,  0,  -1,  -9,  -27,  -37
2726884, 1710335959, "2024/3/13 13:19:19",  4,  -52,  1004,  0,  0,  -1,  -10,  -28,  -37
2727084, 1710335959, "2024/3/13 13:19:19",  10,  -62,  998,  0,  0,  -1,  -11,  -27,  -37
2727284, 1710335959, "2024/3/13 13:19:19",  16,  -60,  1004,  0,  0,  0,  -10,  -26,  -37
2727484, 1710335960, "2024/3/13 13:19:20",  7,  -62,  1003,  0,  0,  -1,  -11,  -25,  -37
2727684, 1710335960, "2024/3/13 13:19:20",  -1,  -62,  988,  0,  0,  -1,  -11,  -26,  -36
2727884, 1710335960, "2024/3/13 13:19:20",  6,  -59,  1007,  0,  -1,  -1,  -11,  -25,  -37
2728084, 1710335960, "2024/3/13 13:19:20",  7,  -59,  1002,  0,  0,  -1,  -11,  -27,  -37
2728284, 1710335960, "2024/3/13 13:19:20",  4,  -57,  1003,  0,  0,  -1,  -11,  -27,  -35
2728484, 1710335961, "2024/3/13 13:19:21",  13,  -50,  1003,  0,  0,  0,  -10,  -25,  -37
2728684, 1710335961, "2024/3/13 13:19:21",  5,  -51,  1004,  0,  -1,  -1,  -11,  -26,  -35
2728884, 1710335961, "2024/3/13 13:19:21",  2,  -55,  1004,  0,  0,  -1,  -9,  -25,  -37
2729084, 1710335961, "2024/3/13 13:19:21",  3,  -68,  1007,  0,  0,  -1,  -12,  -25,  -36
2729284, 1710335961, "2024/3/13 13:19:21",  1,  -62,  1007,  0,  0,  0,  -11,  -26,  -38
2729484, 1710335962, "2024/3/13 13:19:22",  3,  -59,  1000,  0,  0,  -1,  -11,  -26,  -37
2729684, 1710335962, "2024/3/13 13:19:22",  4,  -60,  1000,  0,  0,  -1,  -12,  -25,  -37
2729884, 1710335962, "2024/3/13 13:19:22",  8,  -58,  1002,  0,  -1,  -1,  -11,  -26,  -35
2730084, 1710335962, "2024/3/13 13:19:22",  7,  -57,  1004,  0,  0,  0,  -9,  -25,  -37
2730284, 1710335962, "2024/3/13 13:19:22",  10,  -54,  1005,  0,  0,  -1,  -12,  -26,  -37
2730484, 1710335963, "2024/3/13 13:19:23",  4,  -58,  1006,  0,  0,  0,  -11,  -26,  -36
2730684, 1710335963, "2024/3/13 13:19:23",  3,  -59,  1008,  0,  0,  -1,  -10,  -26,  -39
2730884, 1710335963, "2024/3/13 13:19:23",  0,  -59,  1005,  0,  0,  -1,  -12,  -25,  -36
2731084, 1710335963, "2024/3/13 13:19:23",  2,  -55,  1002,  0,  0,  0,  -11,  -26,  -36
2731284, 1710335963, "2024/3/13 13:19:23",  7,  -59,  1005,  0,  0,  -1,  -11,  -26,  -36
2731484, 1710335964, "2024/3/13 13:19:24",  10,  -63,  1006,  0,  -1,  -1,  -10,  -25,  -37
2731684, 1710335964, "2024/3/13 13:19:24",  9,  -63,  1006,  0,  0,  -1,  -9,  -28,  -37
2731884, 1710335964, "2024/3/13 13:19:24",  1,  -58,  1002,  0,  0,  -1,  -11,  -25,  -36
2732084, 1710335964, "2024/3/13 13:19:24",  7,  -64,  1002,  0,  0,  0,  -10,  -28,  -36
2732284, 1710335964, "2024/3/13 13:19:24",  14,  -60,  1007,  0,  0,  0,  -12,  -27,  -36
2732484, 1710335965, "2024/3/13 13:19:25",  2,  -60,  1005,  0,  -1,  -1,  -11,  -27,  -38
2732684, 1710335965, "2024/3/13 13:19:25",  6,  -60,  1003,  0,  0,  -1,  -10,  -27,  -36
2732884, 1710335965, "2024/3/13 13:19:25",  7,  -56,  1005,  0,  0,  -1,  -10,  -26,  -36
2733084, 1710335965, "2024/3/13 13:19:25",  8,  -57,  1003,  0,  -1,  -1,  -11,  -26,  -35
2733284, 1710335965, "2024/3/13 13:19:25",  2,  -55,  1002,  0,  0,  -1,  -11,  -25,  -35
2733484, 1710335966, "2024/3/13 13:19:26",  2,  -62,  1004,  0,  0,  0,  -10,  -27,  -37
2733684, 1710335966, "2024/3/13 13:19:26",  4,  -55,  1003,  0,  0,  -1,  -10,  -26,  -37
2733884, 1710335966, "2024/3/13 13:19:26",  6,  -64,  1006,  0,  0,  -1,  -11,  -26,  -37
2734084, 1710335966, "2024/3/13 13:19:26",  7,  -60,  1006,  0,  0,  -1,  -11,  -26,  -37
2734284, 1710335966, "2024/3/13 13:19:26",  8,  -55,  1001,  0,  0,  -1,  -12,  -28,  -37
2734484, 1710335967, "2024/3/13 13:19:27",  14,  -63,  1003,  0,  0,  -1,  -11,  -26,  -36
2734684, 1710335967, "2024/3/13 13:19:27",  11,  -54,  1000,  0,  -1,  -1,  -9,  -26,  -36
2734884, 1710335967, "2024/3/13 13:19:27",  10,  -57,  1006,  0,  -1,  -1,  -10,  -27,  -37
2735084, 1710335967, "2024/3/13 13:19:27",  12,  -58,  1028,  -1,  0,  -1,  -10,  -25,  -35
2735284, 1710335967, "2024/3/13 13:19:27",  4,  -61,  1002,  0,  -1,  0,  -11,  -27,  -36
2735484, 1710335968, "2024/3/13 13:19:28",  20,  -58,  1007,  0,  0,  0,  -10,  -25,  -37
2735684, 1710335968, "2024/3/13 13:19:28",  8,  -64,  1006,  0,  0,  -1,  -10,  -26,  -36
2735884, 1710335968, "2024/3/13 13:19:28",  10,  -61,  1005,  0,  -1,  -1,  -11,  -26,  -37
2736084, 1710335968, "2024/3/13 13:19:28",  18,  -62,  1016,  0,  0,  -1,  -11,  -28,  -36
2736284, 1710335968, "2024/3/13 13:19:28",  7,  -58,  1003,  0,  -1,  -1,  -12,  -26,  -36
2736484, 1710335969, "2024/3/13 13:19:29",  -3,  -57,  1004,  0,  -1,  -1,  -10,  -27,  -36
2736684, 1710335969, "2024/3/13 13:19:29",  9,  -66,  1004,  0,  -1,  -1,  -9,  -27,  -37
2736884, 1710335969, "2024/3/13 13:19:29",  16,  -63,  1000,  0,  0,  -1,  -11,  -23,  -37
2737084, 1710335969, "2024/3/13 13:19:29",  8,  -62,  1002,  0,  0,  -1,  -12,  -25,  -37
2737284, 1710335969, "2024/3/13 13:19:29",  11,  -58,  1002,  0,  0,  -1,  -11,  -28,  -37
2737484, 1710335970, "2024/3/13 13:19:30",  2,  -57,  1003,  0,  0,  -1,  -10,  -27,  -36
2737684, 1710335970, "2024/3/13 13:19:30",  1,  -60,  1003,  0,  0,  -1,  -10,  -26,  -36
2737884, 1710335970, "2024/3/13 13:19:30",  3,  -61,  1006,  0,  0,  0,  -12,  -27,  -36
2738084, 1710335970, "2024/3/13 13:19:30",  6,  -62,  1005,  0,  0,  -1,  -11,  -27,  -37
2738284, 1710335970, "2024/3/13 13:19:30",  6,  -59,  1001,  0,  0,  -1,  -10,  -25,  -37
2738484, 1710335971, "2024/3/13 13:19:31",  2,  -53,  1005,  0,  0,  0,  -10,  -27,  -37
2738684, 1710335971, "2024/3/13 13:19:31",  7,  -59,  1002,  0,  -1,  -1,  -10,  -27,  -36
2738884, 1710335971, "2024/3/13 13:19:31",  11,  -58,  1004,  0,  -1,  0,  -9,  -26,  -35
2739084, 1710335971, "2024/3/13 13:19:31",  7,  -60,  1004,  0,  0,  0,  -11,  -26,  -37
2739284, 1710335971, "2024/3/13 13:19:31",  11,  -58,  1005,  0,  -1,  0,  -10,  -27,  -36
2739484, 1710335972, "2024/3/13 13:19:32",  8,  -59,  1004,  0,  0,  -1,  -10,  -27,  -37
2739684, 1710335972, "2024/3/13 13:19:32",  5,  -57,  1002,  0,  0,  -1,  -11,  -27,  -37
2739884, 1710335972, "2024/3/13 13:19:32",  8,  -55,  1002,  0,  0,  0,  -10,  -27,  -37
2740084, 1710335972, "2024/3/13 13:19:32",  9,  -54,  1003,  0,  0,  0,  -11,  -27,  -36
2740284, 1710335972, "2024/3/13 13:19:32",  8,  -60,  1002,  0,  0,  -1,  -11,  -26,  -37
2740484, 1710335973, "2024/3/13 13:19:33",  6,  -59,  1005,  0,  0,  -1,  -9,  -28,  -37
2740684, 1710335973, "2024/3/13 13:19:33",  7,  -58,  1005,  0,  0,  -1,  -11,  -27,  -37
2740884, 1710335973, "2024/3/13 13:19:33",  6,  -55,  1002,  0,  0,  -1,  -12,  -26,  -37
2741084, 1710335973, "2024/3/13 13:19:33",  6,  -55,  1004,  0,  -1,  0,  -9,  -27,  -37
2741284, 1710335973, "2024/3/13 13:19:33",  8,  -58,  1004,  0,  0,  -1,  -11,  -27,  -37
2741484, 1710335974, "2024/3/13 13:19:34",  9,  -56,  1003,  0,  0,  0,  -12,  -27,  -37
2741684, 1710335974, "2024/3/13 13:19:34",  7,  -56,  1003,  0,  0,  0,  -11,  -26,  -37
2741884, 1710335974, "2024/3/13 13:19:34",  4,  -57,  1003,  0,  -1,  -1,  -11,  -27,  -37
2742084, 1710335974, "2024/3/13 13:19:34",  4,  -62,  1001,  0,  0,  -1,  -9,  -26,  -36
2742284, 1710335974, "2024/3/13 13:19:34",  6,  -59,  1006,  0,  0,  -1,  -12,  -27,  -36
2742484, 1710335975, "2024/3/13 13:19:35",  6,  -63,  1002,  0,  0,  -1,  -10,  -26,  -36
2742684, 1710335975, "2024/3/13 13:19:35",  7,  -64,  1002,  0,  0,  -1,  -10,  -27,  -36
2742884, 1710335975, "2024/3/13 13:19:35",  3,  -62,  1001,  0,  0,  0,  -11,  -25,  -37
2743084, 1710335975, "2024/3/13 13:19:35",  6,  -77,  1009,  0,  -1,  0,  -11,  -26,  -36
2743284, 1710335975, "2024/3/13 13:19:35",  12,  -60,  1004,  0,  -1,  -1,  -10,  -26,  -37
2743484, 1710335976, "2024/3/13 13:19:36",  11,  -48,  1003,  0,  0,  -1,  -10,  -27,  -36
2743684, 1710335976, "2024/3/13 13:19:36",  6,  -48,  1002,  0,  0,  -1,  -10,  -26,  -35
2743884, 1710335976, "2024/3/13 13:19:36",  5,  -54,  1004,  0,  0,  0,  -10,  -26,  -37
2744084, 1710335976, "2024/3/13 13:19:36",  6,  -58,  1002,  0,  0,  -1,  -12,  -26,  -37
2744284, 1710335976, "2024/3/13 13:19:36",  1,  -57,  1006,  0,  0,  -1,  -12,  -26,  -36
2744484, 1710335977, "2024/3/13 13:19:37",  9,  -57,  1001,  0,  0,  0,  -10,  -27,  -37
2744684, 1710335977, "2024/3/13 13:19:37",  5,  -59,  1002,  0,  0,  -1,  -10,  -27,  -37
2744884, 1710335977, "2024/3/13 13:19:37",  6,  -61,  1000,  0,  0,  -1,  -11,  -26,  -36
2745084, 1710335977, "2024/3/13 13:19:37",  9,  -61,  1005,  0,  -1,  -1,  -9,  -27,  -35
2745284, 1710335977, "2024/3/13 13:19:37",  8,  -57,  1002,  0,  0,  0,  -11,  -27,  -36
2745484, 1710335978, "2024/3/13 13:19:38",  5,  -60,  1003,  0,  0,  -1,  -11,  -26,  -38
2745684, 1710335978, "2024/3/13 13:19:38",  6,  -60,  1003,  0,  0,  0,  -11,  -27,  -37
2745884, 1710335978, "2024/3/13 13:19:38",  7,  -55,  1006,  0,  0,  -1,  -11,  -26,  -37
2746084, 1710335978, "2024/3/13 13:19:38",  8,  -62,  1003,  0,  0,  0,  -12,  -28,  -36
2746284, 1710335978, "2024/3/13 13:19:38",  8,  -58,  1005,  0,  0,  -1,  -10,  -26,  -36
2746484, 1710335979, "2024/3/13 13:19:39",  7,  -62,  1003,  0,  -1,  -1,  -11,  -27,  -36
2746684, 1710335979, "2024/3/13 13:19:39",  7,  -59,  1008,  0,  0,  0,  -10,  -27,  -37
2746884, 1710335979, "2024/3/13 13:19:39",  6,  -61,  1001,  0,  0,  0,  -12,  -26,  -36
2747084, 1710335979, "2024/3/13 13:19:39",  8,  -62,  1003,  0,  0,  0,  -10,  -27,  -36
2747284, 1710335979, "2024/3/13 13:19:39",  4,  -66,  1006,  0,  -1,  0,  -11,  -25,  -36
2747484, 1710335980, "2024/3/13 13:19:40",  7,  -54,  999,  0,  -1,  -1,  -11,  -27,  -37
2747684, 1710335980, "2024/3/13 13:19:40",  6,  -55,  1002,  0,  0,  0,  -10,  -26,  -37
2747884, 1710335980, "2024/3/13 13:19:40",  10,  -60,  1004,  0,  0,  -1,  -11,  -27,  -36
2748084, 1710335980, "2024/3/13 13:19:40",  7,  -64,  1005,  0,  0,  -1,  -10,  -26,  -36
2748284, 1710335980, "2024/3/13 13:19:40",  -3,  -70,  993,  0,  0,  -1,  -12,  -26,  -37
2748484, 1710335981, "2024/3/13 13:19:41",  0,  -59,  1001,  0,  0,  -1,  -11,  -25,  -36
2748684, 1710335981, "2024/3/13 13:19:41",  6,  -57,  997,  0,  -1,  -1,  -11,  -26,  -36
2748884, 1710335981, "2024/3/13 13:19:41",  19,  -69,  984,  0,  0,  -1,  -12,  -25,  -38
2749084, 1710335981, "2024/3/13 13:19:41",  13,  -59,  1007,  0,  0,  0,  -11,  -27,  -38
2749284, 1710335981, "2024/3/13 13:19:41",  3,  -58,  1009,  0,  0,  -1,  -10,  -27,  -37
2749484, 1710335982, "2024/3/13 13:19:42",  5,  -65,  1007,  0,  0,  0,  -11,  -26,  -36
2749684, 1710335982, "2024/3/13 13:19:42",  2,  -61,  998,  0,  0,  0,  -12,  -26,  -36
2749884, 1710335982, "2024/3/13 13:19:42",  5,  -53,  1005,  0,  0,  -1,  -9,  -27,  -36
2750084, 1710335982, "2024/3/13 13:19:42",  9,  -59,  1007,  0,  0,  0,  -12,  -27,  -38
2750284, 1710335982, "2024/3/13 13:19:42",  2,  -51,  997,  0,  0,  -1,  -11,  -26,  -37
2750484, 1710335983, "2024/3/13 13:19:43",  -1,  -65,  1002,  0,  0,  -1,  -11,  -27,  -38
2750684, 1710335983, "2024/3/13 13:19:43",  19,  -64,  1000,  0,  0,  -1,  -10,  -27,  -37
2750884, 1710335983, "2024/3/13 13:19:43",  9,  -53,  1001,  0,  0,  -1,  -11,  -27,  -36
2751084, 1710335983, "2024/3/13 13:19:43",  3,  -54,  1006,  0,  0,  0,  -11,  -27,  -36
2751284, 1710335983, "2024/3/13 13:19:43",  9,  -58,  1003,  0,  0,  0,  -10,  -26,  -37
2751484, 1710335984, "2024/3/13 13:19:44",  8,  -55,  1001,  0,  0,  0,  -9,  -26,  -37
2751684, 1710335984, "2024/3/13 13:19:44",  9,  -63,  1002,  0,  0,  -1,  -11,  -27,  -36
2751884, 1710335984, "2024/3/13 13:19:44",  4,  -57,  1007,  0,  0,  -1,  -10,  -26,  -37
2752084, 1710335984, "2024/3/13 13:19:44",  8,  -62,  1003,  0,  0,  -1,  -10,  -26,  -36
2752284, 1710335984, "2024/3/13 13:19:44",  7,  -51,  1004,  0,  0,  -1,  -10,  -27,  -37
2752484, 1710335985, "2024/3/13 13:19:45",  7,  -52,  1003,  0,  -1,  0,  -9,  -26,  -36
2752684, 1710335985, "2024/3/13 13:19:45",  3,  -62,  996,  0,  -1,  -1,  -9,  -26,  -36
2752884, 1710335985, "2024/3/13 13:19:45",  6,  -63,  1007,  0,  0,  -1,  -11,  -25,  -37
2753084, 1710335985, "2024/3/13 13:19:45",  4,  -61,  1001,  0,  0,  -1,  -10,  -25,  -36
2753284, 1710335985, "2024/3/13 13:19:45",  9,  -62,  1002,  0,  0,  -1,  -10,  -26,  -38
2753484, 1710335986, "2024/3/13 13:19:46",  7,  -58,  1004,  0,  0,  -1,  -11,  -25,  -37
2753684, 1710335986, "2024/3/13 13:19:46",  8,  -63,  1008,  0,  0,  -1,  -11,  -27,  -36
2753884, 1710335986, "2024/3/13 13:19:46",  8,  -61,  1004,  0,  0,  -1,  -10,  -26,  -35
2754084, 1710335986, "2024/3/13 13:19:46",  4,  -60,  1002,  0,  0,  0,  -11,  -26,  -36
2754284, 1710335986, "2024/3/13 13:19:46",  10,  -61,  1006,  0,  0,  -1,  -11,  -26,  -37
2754484, 1710335987, "2024/3/13 13:19:47",  4,  -61,  1002,  0,  0,  -1,  -11,  -26,  -36
2754684, 1710335987, "2024/3/13 13:19:47",  4,  -54,  1002,  0,  0,  -1,  -10,  -26,  -37
2754884, 1710335987, "2024/3/13 13:19:47",  5,  -50,  1005,  0,  -1,  -1,  -10,  -26,  -37
2755084, 1710335987, "2024/3/13 13:19:47",  4,  -58,  1004,  0,  -1,  0,  -11,  -26,  -38
2755284, 1710335987, "2024/3/13 13:19:47",  9,  -59,  1000,  0,  -1,  0,  -10,  -27,  -36
2755484, 1710335988, "2024/3/13 13:19:48",  8,  -63,  1002,  0,  -1,  -1,  -12,  -27,  -36
2755684, 1710335988, "2024/3/13 13:19:48",  7,  -51,  1007,  0,  0,  -1,  -12,  -27,  -37
2755884, 1710335988, "2024/3/13 13:19:48",  5,  -61,  1005,  0,  0,  0,  -11,  -25,  -36
2756084, 1710335988, "2024/3/13 13:19:48",  6,  -64,  1004,  0,  0,  0,  -10,  -26,  -37
2756284, 1710335988, "2024/3/13 13:19:48",  4,  -49,  1003,  0,  0,  0,  -10,  -26,  -36
2756484, 1710335989, "2024/3/13 13:19:49",  6,  -54,  1003,  0,  0,  0,  -10,  -26,  -36
2756684, 1710335989, "2024/3/13 13:19:49",  7,  -60,  1001,  0,  0,  -1,  -10,  -27,  -37
2756884, 1710335989, "2024/3/13 13:19:49",  -1,  -54,  1007,  0,  -1,  -1,  -10,  -27,  -37
2757084, 1710335989, "2024/3/13 13:19:49",  2,  -66,  1007,  0,  0,  -1,  -8,  -29,  -36
2757284, 1710335989, "2024/3/13 13:19:49",  0,  -57,  1004,  0,  0,  -1,  -9,  -27,  -36
2757484, 1710335990, "2024/3/13 13:19:50",  8,  -64,  1005,  0,  0,  -1,  -11,  -26,  -36
2757684, 1710335990, "2024/3/13 13:19:50",  10,  -66,  1003,  0,  0,  0,  -11,  -26,  -36
2757884, 1710335990, "2024/3/13 13:19:50",  10,  -58,  1002,  0,  0,  0,  -10,  -26,  -36
2758084, 1710335990, "2024/3/13 13:19:50",  8,  -61,  1003,  0,  0,  -1,  -9,  -26,  -36
2758284, 1710335990, "2024/3/13 13:19:50",  8,  -59,  1004,  0,  -1,  -1,  -10,  -27,  -37
2758484, 1710335991, "2024/3/13 13:19:51",  6,  -56,  1001,  0,  0,  -1,  -11,  -27,  -37
2758684, 1710335991, "2024/3/13 13:19:51",  9,  -59,  1004,  0,  0,  0,  -10,  -28,  -38
2758884, 1710335991, "2024/3/13 13:19:51",  4,  -60,  1004,  0,  0,  0,  -11,  -27,  -38
2759084, 1710335991, "2024/3/13 13:19:51",  6,  -61,  1004,  0,  0,  -1,  -9,  -27,  -37
2759284, 1710335991, "2024/3/13 13:19:51",  4,  -65,  1004,  0,  0,  0,  -11,  -28,  -37
2759484, 1710335992, "2024/3/13 13:19:52",  6,  -62,  1005,  0,  0,  -1,  -11,  -27,  -36
2759684, 1710335992, "2024/3/13 13:19:52",  7,  -66,  1003,  0,  0,  -1,  -11,  -26,  -36
2759884, 1710335992, "2024/3/13 13:19:52",  8,  -61,  1004,  0,  0,  0,  -12,  -27,  -36
2760084, 1710335992, "2024/3/13 13:19:52",  10,  -64,  1004,  0,  0,  -1,  -10,  -27,  -36
2760284, 1710335992, "2024/3/13 13:19:52",  9,  -60,  1005,  0,  0,  0,  -11,  -28,  -36
2760484, 1710335993, "2024/3/13 13:19:53",  10,  -55,  1004,  0,  0,  -1,  -11,  -27,  -36
2760684, 1710335993, "2024/3/13 13:19:53",  8,  -59,  1000,  0,  0,  0,  -12,  -24,  -37
2760884, 1710335993, "2024/3/13 13:19:53",  10,  -50,  1002,  0,  0,  0,  -10,  -27,  -36
2761084, 1710335993, "2024/3/13 13:19:53",  3,  -58,  1008,  0,  0,  0,  -10,  -26,  -36
2761284, 1710335993, "2024/3/13 13:19:53",  8,  -60,  1009,  0,  0,  0,  -12,  -26,  -37
2761484, 1710335994, "2024/3/13 13:19:54",  8,  -58,  1008,  0,  0,  -1,  -9,  -27,  -37
2761684, 1710335994, "2024/3/13 13:19:54",  11,  -59,  1002,  0,  0,  -1,  -12,  -27,  -35
2761884, 1710335994, "2024/3/13 13:19:54",  6,  -59,  1000,  0,  0,  0,  -11,  -27,  -34
2762084, 1710335994, "2024/3/13 13:19:54",  11,  -56,  1003,  0,  0,  -1,  -10,  -26,  -36
2762284, 1710335994, "2024/3/13 13:19:54",  9,  -55,  1000,  0,  0,  0,  -10,  -27,  -36
2762484, 1710335995, "2024/3/13 13:19:55",  5,  -60,  1002,  0,  0,  -1,  -10,  -26,  -36
2762684, 1710335995, "2024/3/13 13:19:55",  1,  -64,  1005,  0,  0,  -1,  -11,  -27,  -37
2762884, 1710335995, "2024/3/13 13:19:55",  7,  -61,  1004,  0,  0,  0,  -11,  -25,  -36
2763084, 1710335995, "2024/3/13 13:19:55",  9,  -63,  1002,  0,  0,  -1,  -12,  -27,  -36
2763284, 1710335995, "2024/3/13 13:19:55",  2,  -63,  1012,  1,  -1,  -1,  -10,  -26,  -36
2763484, 1710335996, "2024/3/13 13:19:56",  5,  -62,  1006,  0,  0,  -1,  -10,  -26,  -36
2763684, 1710335996, "2024/3/13 13:19:56",  2,  -63,  1002,  0,  -1,  -1,  -11,  -27,  -35
2763884, 1710335996, "2024/3/13 13:19:56",  9,  -54,  996,  0,  0,  0,  -10,  -28,  -35
2764084, 1710335996, "2024/3/13 13:19:56",  -4,  -64,  995,  0,  -1,  -1,  -11,  -26,  -35
2764284, 1710335996, "2024/3/13 13:19:56",  5,  -62,  991,  0,  -1,  0,  -9,  -25,  -36
2764484, 1710335997, "2024/3/13 13:19:57",  6,  -62,  1012,  0,  0,  0,  -11,  -27,  -36
2764684, 1710335997, "2024/3/13 13:19:57",  9,  -62,  1001,  0,  0,  0,  -10,  -26,  -36
2764884, 1710335997, "2024/3/13 13:19:57",  13,  -59,  1004,  0,  -1,  0,  -11,  -27,  -36
2765084, 1710335997, "2024/3/13 13:19:57",  4,  -56,  1003,  0,  0,  -1,  -11,  -27,  -36
2765284, 1710335997, "2024/3/13 13:19:57",  7,  -65,  1006,  0,  -1,  -1,  -12,  -27,  -36
2765484, 1710335998, "2024/3/13 13:19:58",  6,  -60,  1004,  0,  0,  0,  -10,  -26,  -37
2765684, 1710335998, "2024/3/13 13:19:58",  7,  -58,  1005,  0,  0,  0,  -11,  -27,  -37
2765884, 1710335998, "2024/3/13 13:19:58",  8,  -61,  1002,  0,  0,  -1,  -10,  -27,  -36
2766084, 1710335998, "2024/3/13 13:19:58",  6,  -57,  1002,  0,  0,  -1,  -10,  -27,  -36
2766284, 1710335998, "2024/3/13 13:19:58",  8,  -58,  1004,  0,  0,  -1,  -9,  -26,  -36
2766484, 1710335999, "2024/3/13 13:19:59",  6,  -61,  1003,  0,  0,  -1,  -12,  -26,  -37
2766684, 1710335999, "2024/3/13 13:19:59",  6,  -53,  1002,  0,  0,  -1,  -11,  -25,  -36
2766884, 1710335999, "2024/3/13 13:19:59",  4,  -56,  1001,  0,  0,  0,  -10,  -26,  -35
2767084, 1710335999, "2024/3/13 13:19:59",  4,  -48,  1004,  0,  0,  -1,  -12,  -28,  -37
2767284, 1710335999, "2024/3/13 13:19:59",  9,  -54,  1003,  0,  0,  -1,  -9,  -27,  -38
2767484, 1710336000, "2024/3/13 13:20:0",  5,  -58,  1005,  0,  0,  0,  -10,  -27,  -37
2767684, 1710336000, "2024/3/13 13:20:0",  4,  -56,  999,  0,  0,  0,  -11,  -26,  -36
2767884, 1710336000, "2024/3/13 13:20:0",  2,  -57,  1005,  0,  0,  -1,  -11,  -25,  -36
2768084, 1710336000, "2024/3/13 13:20:0",  2,  -59,  1004,  0,  0,  -1,  -9,  -24,  -36
2768284, 1710336000, "2024/3/13 13:20:0",  3,  -60,  1002,  0,  0,  0,  -10,  -27,  -36
2768484, 1710336001, "2024/3/13 13:20:1",  -1,  -62,  1003,  0,  0,  0,  -11,  -26,  -38
2768684, 1710336001, "2024/3/13 13:20:1",  5,  -52,  1000,  0,  0,  -1,  -10,  -27,  -36
2768884, 1710336001, "2024/3/13 13:20:1",  6,  -62,  1004,  0,  0,  -1,  -10,  -26,  -37
2769084, 1710336001, "2024/3/13 13:20:1",  3,  -57,  1002,  0,  0,  -1,  -10,  -26,  -36
2769284, 1710336001, "2024/3/13 13:20:1",  3,  -53,  1005,  0,  0,  0,  -10,  -27,  -38
2769484, 1710336002, "2024/3/13 13:20:2",  10,  -56,  1001,  0,  0,  -1,  -11,  -26,  -37
2769684, 1710336002, "2024/3/13 13:20:2",  7,  -58,  1003,  0,  0,  0,  -10,  -26,  -36
2769884, 1710336002, "2024/3/13 13:20:2",  10,  -56,  1008,  0,  -1,  0,  -10,  -27,  -36
2770084, 1710336002, "2024/3/13 13:20:2",  11,  -63,  1007,  0,  -1,  -1,  -10,  -27,  -36
2770284, 1710336002, "2024/3/13 13:20:2",  8,  -65,  1002,  0,  0,  -1,  -12,  -27,  -34
2770484, 1710336003, "2024/3/13 13:20:3",  8,  -63,  1003,  0,  0,  -1,  -11,  -27,  -37
2770684, 1710336003, "2024/3/13 13:20:3",  7,  -60,  1005,  0,  0,  -1,  -11,  -27,  -36
2770884, 1710336003, "2024/3/13 13:20:3",  1,  -57,  1000,  0,  0,  -1,  -9,  -27,  -36
2771084, 1710336003, "2024/3/13 13:20:3",  6,  -66,  1005,  0,  0,  -1,  -10,  -27,  -36
2771284, 1710336003, "2024/3/13 13:20:3",  5,  -54,  1002,  0,  0,  -1,  -9,  -26,  -36
2771484, 1710336004, "2024/3/13 13:20:4",  6,  -64,  1010,  0,  0,  0,  -11,  -26,  -36
2771684, 1710336004, "2024/3/13 13:20:4",  8,  -58,  1002,  0,  0,  0,  -11,  -26,  -36
2771884, 1710336004, "2024/3/13 13:20:4",  8,  -60,  1006,  0,  0,  -1,  -10,  -27,  -36
2772084, 1710336004, "2024/3/13 13:20:4",  7,  -62,  1001,  0,  0,  0,  -10,  -27,  -37
2772284, 1710336004, "2024/3/13 13:20:4",  7,  -67,  998,  0,  0,  0,  -11,  -26,  -35
