millis,stamp,datetime,accX,accY,accZ,gyroX,gyroY,gyroZ,compX,compY,compZ
1480302, 1710334712, "2024/3/13 12:58:32",  6,  -54,  1001,  0,  0,  0,  -9,  -27,  -35
1480502, 1710334712, "2024/3/13 12:58:32",  5,  -59,  1004,  0,  0,  -1,  -10,  -27,  -35
1480702, 1710334712, "2024/3/13 12:58:32",  6,  -55,  1001,  0,  0,  -1,  -10,  -28,  -34
1480902, 1710334712, "2024/3/13 12:58:32",  8,  -57,  1003,  0,  0,  -1,  -10,  -27,  -34
1481102, 1710334713, "2024/3/13 12:58:33",  7,  -51,  1004,  0,  0,  0,  -9,  -27,  -35
1481302, 1710334713, "2024/3/13 12:58:33",  7,  -60,  1004,  0,  0,  0,  -9,  -28,  -35
1481502, 1710334713, "2024/3/13 12:58:33",  2,  -60,  1003,  0,  0,  -1,  -9,  -27,  -34
1481702, 1710334713, "2024/3/13 12:58:33",  8,  -58,  1005,  0,  0,  -1,  -10,  -27,  -35
1481902, 1710334713, "2024/3/13 12:58:33",  6,  -56,  1003,  0,  -1,  0,  -11,  -28,  -35
1482102, 1710334714, "2024/3/13 12:58:34",  10,  -54,  1001,  0,  0,  -1,  -10,  -27,  -33
1482302, 1710334714, "2024/3/13 12:58:34",  3,  -52,  1004,  0,  0,  0,  -11,  -26,  -34
1482502, 1710334714, "2024/3/13 12:58:34",  7,  -60,  1004,  0,  0,  0,  -9,  -27,  -35
1482702, 1710334714, "2024/3/13 12:58:34",  7,  -58,  1001,  0,  0,  -1,  -9,  -26,  -35
1482902, 1710334714, "2024/3/13 12:58:34",  5,  -51,  1003,  0,  0,  -1,  -11,  -28,  -34
1483102, 1710334715, "2024/3/13 12:58:35",  6,  -57,  1005,  0,  -1,  0,  -11,  -27,  -34
1483302, 1710334715, "2024/3/13 12:58:35",  0,  -59,  1001,  0,  0,  -1,  -9,  -26,  -33
1483502, 1710334715, "2024/3/13 12:58:35",  7,  -59,  1004,  0,  0,  -1,  -9,  -26,  -34
1483702, 1710334715, "2024/3/13 12:58:35",  8,  -60,  1002,  0,  0,  -1,  -11,  -27,  -35
1483902, 1710334715, "2024/3/13 12:58:35",  7,  -56,  999,  0,  0,  -1,  -12,  -27,  -34
1484102, 1710334716, "2024/3/13 12:58:36",  9,  -51,  1007,  0,  0,  0,  -10,  -27,  -34
1484302, 1710334716, "2024/3/13 12:58:36",  3,  -61,  1001,  0,  -1,  -1,  -10,  -26,  -34
1484502, 1710334716, "2024/3/13 12:58:36",  7,  -61,  1004,  0,  0,  -1,  -11,  -26,  -35
1484702, 1710334716, "2024/3/13 12:58:36",  3,  -60,  1008,  0,  0,  -1,  -11,  -28,  -35
1484902, 1710334716, "2024/3/13 12:58:36",  5,  -57,  1007,  0,  0,  0,  -10,  -28,  -33
1485102, 1710334717, "2024/3/13 12:58:37",  6,  -49,  1004,  0,  0,  0,  -10,  -26,  -35
1485302, 1710334717, "2024/3/13 12:58:37",  5,  -60,  1004,  0,  0,  -1,  -11,  -26,  -34
1485502, 1710334717, "2024/3/13 12:58:37",  3,  -59,  1001,  0,  0,  -1,  -10,  -26,  -36
1485702, 1710334717, "2024/3/13 12:58:37",  3,  -58,  1003,  0,  0,  -1,  -9,  -26,  -35
1485902, 1710334717, "2024/3/13 12:58:37",  5,  -58,  1002,  0,  0,  -1,  -10,  -24,  -35
1486102, 1710334718, "2024/3/13 12:58:38",  6,  -59,  1001,  0,  0,  0,  -11,  -27,  -34
1486302, 1710334718, "2024/3/13 12:58:38",  7,  -61,  1001,  0,  0,  0,  -10,  -25,  -35
1486502, 1710334718, "2024/3/13 12:58:38",  6,  -60,  1004,  0,  0,  -1,  -11,  -26,  -36
1486702, 1710334718, "2024/3/13 12:58:38",  3,  -58,  1004,  0,  0,  -1,  -9,  -25,  -34
1486902, 1710334718, "2024/3/13 12:58:38",  2,  -60,  1004,  0,  0,  0,  -11,  -27,  -35
1487102, 1710334719, "2024/3/13 12:58:39",  1,  -52,  1001,  0,  0,  -1,  -10,  -27,  -34
1487302, 1710334719, "2024/3/13 12:58:39",  7,  -55,  1002,  0,  0,  -1,  -11,  -26,  -35
1487502, 1710334719, "2024/3/13 12:58:39",  2,  -61,  1005,  0,  0,  -1,  -10,  -28,  -33
1487702, 1710334719, "2024/3/13 12:58:39",  6,  -59,  1007,  0,  0,  0,  -10,  -28,  -35
1487902, 1710334719, "2024/3/13 12:58:39",  7,  -61,  1003,  0,  0,  -1,  -11,  -26,  -35
1488102, 1710334720, "2024/3/13 12:58:40",  7,  -59,  1003,  0,  -1,  -1,  -11,  -28,  -34
1488302, 1710334720, "2024/3/13 12:58:40",  4,  -57,  1005,  0,  -1,  -1,  -10,  -27,  -35
1488502, 1710334720, "2024/3/13 12:58:40",  8,  -54,  1005,  0,  0,  -1,  -11,  -26,  -35
1488702, 1710334720, "2024/3/13 12:58:40",  4,  -58,  1004,  0,  0,  -1,  -10,  -27,  -35
1488902, 1710334720, "2024/3/13 12:58:40",  7,  -60,  1001,  0,  0,  -1,  -10,  -27,  -34
1489102, 1710334721, "2024/3/13 12:58:41",  5,  -53,  1002,  0,  -1,  -1,  -10,  -25,  -35
1489302, 1710334721, "2024/3/13 12:58:41",  3,  -60,  1005,  0,  0,  -1,  -11,  -26,  -36
1489502, 1710334721, "2024/3/13 12:58:41",  6,  -60,  1001,  0,  0,  0,  -12,  -27,  -35
1489702, 1710334721, "2024/3/13 12:58:41",  6,  -56,  1001,  0,  0,  -1,  -10,  -27,  -35
1489902, 1710334721, "2024/3/13 12:58:41",  8,  -61,  1002,  0,  0,  -1,  -10,  -25,  -35
1490102, 1710334722, "2024/3/13 12:58:42",  3,  -60,  1005,  0,  0,  -1,  -11,  -26,  -34
1490302, 1710334722, "2024/3/13 12:58:42",  5,  -54,  1006,  0,  0,  0,  -11,  -26,  -35
1490502, 1710334722, "2024/3/13 12:58:42",  6,  -57,  1003,  0,  0,  0,  -11,  -27,  -35
1490702, 1710334722, "2024/3/13 12:58:42",  9,  -51,  1006,  0,  0,  0,  -12,  -25,  -34
1490902, 1710334722, "2024/3/13 12:58:42",  8,  -56,  1005,  0,  0,  -1,  -11,  -26,  -34
1491102, 1710334723, "2024/3/13 12:58:43",  4,  -57,  1004,  0,  0,  -1,  -10,  -25,  -34
1491302, 1710334723, "2024/3/13 12:58:43",  6,  -58,  1000,  0,  0,  -1,  -11,  -27,  -35
1491502, 1710334723, "2024/3/13 12:58:43",  7,  -58,  1003,  0,  0,  -1,  -10,  -27,  -34
1491702, 1710334723, "2024/3/13 12:58:43",  3,  -55,  1003,  0,  0,  -1,  -11,  -27,  -34
1491902, 1710334723, "2024/3/13 12:58:43",  8,  -56,  1005,  0,  0,  0,  -12,  -27,  -34
1492102, 1710334724, "2024/3/13 12:58:44",  8,  -57,  1007,  0,  -1,  0,  -9,  -25,  -34
1492302, 1710334724, "2024/3/13 12:58:44",  5,  -57,  1004,  0,  0,  0,  -10,  -27,  -36
1492502, 1710334724, "2024/3/13 12:58:44",  5,  -56,  1005,  0,  0,  0,  -9,  -26,  -35
1492702, 1710334724, "2024/3/13 12:58:44",  5,  -58,  1002,  0,  0,  0,  -11,  -27,  -33
1492902, 1710334724, "2024/3/13 12:58:44",  10,  -57,  1000,  0,  -1,  -1,  -9,  -28,  -33
1493102, 1710334725, "2024/3/13 12:58:45",  6,  -59,  1006,  0,  0,  -1,  -11,  -27,  -35
1493302, 1710334725, "2024/3/13 12:58:45",  4,  -62,  1004,  0,  0,  0,  -10,  -26,  -35
1493502, 1710334725, "2024/3/13 12:58:45",  5,  -58,  1006,  0,  0,  -1,  -11,  -27,  -35
1493702, 1710334725, "2024/3/13 12:58:45",  6,  -54,  1002,  0,  0,  0,  -11,  -26,  -34
1493902, 1710334725, "2024/3/13 12:58:45",  4,  -55,  1008,  0,  0,  -1,  -9,  -28,  -35
1494102, 1710334726, "2024/3/13 12:58:46",  3,  -61,  1003,  0,  0,  -1,  -9,  -28,  -36
1494302, 1710334726, "2024/3/13 12:58:46",  3,  -57,  1004,  0,  0,  -1,  -10,  -25,  -35
1494502, 1710334726, "2024/3/13 12:58:46",  0,  -62,  1003,  0,  0,  0,  -9,  -27,  -35
1494702, 1710334726, "2024/3/13 12:58:46",  3,  -59,  1005,  0,  0,  -1,  -11,  -27,  -36
1494902, 1710334726, "2024/3/13 12:58:46",  4,  -59,  1005,  0,  0,  -1,  -10,  -27,  -34
1495102, 1710334727, "2024/3/13 12:58:47",  8,  -54,  1000,  0,  0,  -1,  -11,  -27,  -36
1495302, 1710334727, "2024/3/13 12:58:47",  3,  -59,  1003,  0,  0,  -1,  -12,  -28,  -36
1495502, 1710334727, "2024/3/13 12:58:47",  3,  -59,  1003,  0,  0,  -1,  -10,  -27,  -37
1495702, 1710334727, "2024/3/13 12:58:47",  3,  -61,  1005,  0,  0,  0,  -11,  -27,  -36
1495902, 1710334727, "2024/3/13 12:58:47",  5,  -60,  1005,  0,  0,  -1,  -11,  -27,  -35
1496102, 1710334728, "2024/3/13 12:58:48",  8,  -55,  1003,  0,  0,  0,  -11,  -28,  -36
1496302, 1710334728, "2024/3/13 12:58:48",  7,  -53,  1004,  0,  0,  -1,  -9,  -26,  -36
1496502, 1710334728, "2024/3/13 12:58:48",  8,  -56,  1006,  0,  0,  -1,  -9,  -26,  -33
1496702, 1710334728, "2024/3/13 12:58:48",  5,  -55,  1007,  0,  -1,  -1,  -9,  -26,  -35
1496902, 1710334728, "2024/3/13 12:58:48",  7,  -59,  1003,  0,  0,  -1,  -11,  -27,  -36
1497102, 1710334729, "2024/3/13 12:58:49",  5,  -60,  1004,  0,  0,  0,  -10,  -27,  -35
1497302, 1710334729, "2024/3/13 12:58:49",  5,  -55,  1001,  0,  0,  0,  -10,  -27,  -36
1497502, 1710334729, "2024/3/13 12:58:49",  -9,  -59,  1000,  0,  -1,  -1,  -12,  -26,  -37
1497702, 1710334729, "2024/3/13 12:58:49",  6,  -52,  1006,  0,  0,  -1,  -10,  -27,  -36
1497902, 1710334729, "2024/3/13 12:58:49",  6,  -56,  1000,  0,  0,  -1,  -9,  -27,  -35
1498102, 1710334730, "2024/3/13 12:58:50",  9,  -60,  1000,  0,  0,  0,  -11,  -27,  -34
1498302, 1710334730, "2024/3/13 12:58:50",  5,  -52,  995,  0,  0,  -1,  -9,  -26,  -35
1498502, 1710334730, "2024/3/13 12:58:50",  10,  -57,  1003,  0,  0,  -1,  -10,  -25,  -35
1498702, 1710334730, "2024/3/13 12:58:50",  10,  -52,  1002,  0,  0,  -1,  -10,  -26,  -34
1498902, 1710334730, "2024/3/13 12:58:50",  13,  -53,  1004,  0,  0,  -1,  -9,  -26,  -34
1499102, 1710334731, "2024/3/13 12:58:51",  10,  -57,  1002,  0,  -1,  0,  -9,  -27,  -34
1499302, 1710334731, "2024/3/13 12:58:51",  4,  -61,  1005,  0,  0,  0,  -9,  -26,  -34
1499502, 1710334731, "2024/3/13 12:58:51",  4,  -64,  1002,  0,  0,  -1,  -10,  -27,  -36
1499702, 1710334731, "2024/3/13 12:58:51",  5,  -57,  1003,  0,  0,  0,  -11,  -25,  -34
1499902, 1710334731, "2024/3/13 12:58:51",  6,  -60,  1006,  0,  0,  0,  -10,  -26,  -34
1500102, 1710334732, "2024/3/13 12:58:52",  7,  -57,  1004,  0,  -1,  -1,  -11,  -27,  -34
1500302, 1710334732, "2024/3/13 12:58:52",  2,  -56,  1004,  0,  0,  -1,  -9,  -25,  -34
1500502, 1710334732, "2024/3/13 12:58:52",  3,  -55,  1000,  0,  0,  -1,  -7,  -26,  -34
1500702, 1710334732, "2024/3/13 12:58:52",  7,  -61,  1001,  0,  0,  -1,  -10,  -27,  -33
1500902, 1710334732, "2024/3/13 12:58:52",  5,  -54,  1003,  0,  0,  -1,  -10,  -27,  -35
1501102, 1710334733, "2024/3/13 12:58:53",  4,  -59,  1005,  0,  0,  0,  -10,  -26,  -35
1501302, 1710334733, "2024/3/13 12:58:53",  5,  -58,  1004,  0,  0,  0,  -9,  -28,  -34
1501502, 1710334733, "2024/3/13 12:58:53",  6,  -57,  1005,  0,  0,  -1,  -9,  -27,  -35
1501702, 1710334733, "2024/3/13 12:58:53",  6,  -60,  999,  0,  0,  0,  -8,  -25,  -33
1501902, 1710334733, "2024/3/13 12:58:53",  4,  -60,  1005,  0,  -1,  -1,  -10,  -26,  -34
1502102, 1710334734, "2024/3/13 12:58:54",  9,  -58,  1003,  0,  0,  -1,  -11,  -27,  -34
1502302, 1710334734, "2024/3/13 12:58:54",  5,  -56,  1002,  0,  0,  -1,  -10,  -27,  -33
1502502, 1710334734, "2024/3/13 12:58:54",  6,  -58,  1004,  0,  0,  -1,  -11,  -26,  -34
1502702, 1710334734, "2024/3/13 12:58:54",  3,  -59,  1004,  0,  0,  -1,  -9,  -27,  -35
1502902, 1710334734, "2024/3/13 12:58:54",  5,  -62,  1006,  0,  -1,  -1,  -9,  -25,  -34
1503102, 1710334735, "2024/3/13 12:58:55",  10,  -56,  1001,  0,  0,  0,  -9,  -27,  -34
1503302, 1710334735, "2024/3/13 12:58:55",  4,  -58,  1000,  0,  0,  0,  -10,  -27,  -33
1503502, 1710334735, "2024/3/13 12:58:55",  3,  -58,  999,  0,  0,  -1,  -12,  -27,  -35
1503702, 1710334735, "2024/3/13 12:58:55",  0,  -56,  1001,  0,  0,  0,  -9,  -27,  -35
1503902, 1710334735, "2024/3/13 12:58:55",  3,  -57,  1004,  0,  0,  0,  -9,  -27,  -34
1504102, 1710334736, "2024/3/13 12:58:56",  6,  -66,  1004,  0,  0,  -1,  -12,  -25,  -33
1504302, 1710334736, "2024/3/13 12:58:56",  7,  -61,  1005,  0,  0,  -1,  -11,  -28,  -35
1504502, 1710334736, "2024/3/13 12:58:56",  5,  -61,  1005,  0,  0,  0,  -9,  -26,  -33
1504702, 1710334736, "2024/3/13 12:58:56",  3,  -62,  1002,  0,  0,  -1,  -11,  -25,  -34
1504902, 1710334736, "2024/3/13 12:58:56",  3,  -63,  1003,  0,  0,  -1,  -11,  -25,  -35
1505102, 1710334737, "2024/3/13 12:58:57",  4,  -60,  1001,  0,  0,  0,  -11,  -27,  -36
1505302, 1710334737, "2024/3/13 12:58:57",  3,  -54,  1004,  0,  0,  0,  -10,  -26,  -34
1505502, 1710334737, "2024/3/13 12:58:57",  10,  -61,  1005,  0,  0,  -1,  -11,  -26,  -34
1505702, 1710334737, "2024/3/13 12:58:57",  2,  -62,  1006,  0,  0,  -1,  -10,  -26,  -34
1505902, 1710334737, "2024/3/13 12:58:57",  8,  -59,  1002,  0,  -1,  -1,  -9,  -26,  -33
1506102, 1710334738, "2024/3/13 12:58:58",  5,  -58,  1005,  0,  0,  -1,  -12,  -27,  -33
1506302, 1710334738, "2024/3/13 12:58:58",  2,  -60,  1002,  0,  0,  -1,  -10,  -26,  -34
1506502, 1710334738, "2024/3/13 12:58:58",  6,  -60,  1003,  0,  0,  0,  -11,  -26,  -36
1506702, 1710334738, "2024/3/13 12:58:58",  4,  -58,  1000,  0,  0,  0,  -10,  -27,  -34
1506902, 1710334738, "2024/3/13 12:58:58",  4,  -56,  1005,  0,  0,  -1,  -10,  -27,  -34
1507102, 1710334739, "2024/3/13 12:58:59",  3,  -54,  1003,  0,  0,  -1,  -10,  -27,  -35
1507302, 1710334739, "2024/3/13 12:58:59",  6,  -57,  1006,  0,  -1,  -1,  -9,  -27,  -34
1507502, 1710334739, "2024/3/13 12:58:59",  6,  -56,  1006,  0,  0,  -1,  -9,  -25,  -36
1507702, 1710334739, "2024/3/13 12:58:59",  0,  -58,  1002,  0,  0,  0,  -11,  -28,  -35
1507902, 1710334739, "2024/3/13 12:58:59",  4,  -52,  1004,  0,  0,  0,  -11,  -26,  -34
1508102, 1710334740, "2024/3/13 12:59:0",  2,  -53,  1007,  0,  0,  -1,  -11,  -27,  -33
1508302, 1710334740, "2024/3/13 12:59:0",  8,  -59,  1007,  0,  0,  -1,  -9,  -26,  -34
1508502, 1710334740, "2024/3/13 12:59:0",  8,  -60,  1003,  0,  0,  -1,  -11,  -25,  -34
1508702, 1710334740, "2024/3/13 12:59:0",  4,  -57,  1002,  0,  0,  -1,  -10,  -26,  -34
1508902, 1710334740, "2024/3/13 12:59:0",  8,  -53,  1006,  0,  0,  -1,  -11,  -26,  -35
1509102, 1710334741, "2024/3/13 12:59:1",  11,  -59,  1007,  0,  0,  0,  -11,  -26,  -34
1509302, 1710334741, "2024/3/13 12:59:1",  3,  -52,  1008,  0,  0,  -1,  -11,  -27,  -33
1509502, 1710334741, "2024/3/13 12:59:1",  4,  -60,  1002,  0,  -1,  -1,  -11,  -27,  -34
1509702, 1710334741, "2024/3/13 12:59:1",  4,  -57,  1005,  0,  0,  -1,  -8,  -26,  -35
1509902, 1710334741, "2024/3/13 12:59:1",  5,  -57,  1006,  0,  -1,  0,  -10,  -28,  -35
1510102, 1710334742, "2024/3/13 12:59:2",  2,  -58,  1000,  0,  -1,  0,  -10,  -25,  -34
1510302, 1710334742, "2024/3/13 12:59:2",  1,  -58,  1005,  0,  0,  -1,  -12,  -27,  -35
1510502, 1710334742, "2024/3/13 12:59:2",  5,  -57,  1007,  0,  0,  -1,  -9,  -28,  -35
1510702, 1710334742, "2024/3/13 12:59:2",  6,  -63,  1000,  0,  0,  0,  -10,  -25,  -33
1510902, 1710334742, "2024/3/13 12:59:2",  8,  -59,  1000,  0,  0,  -1,  -11,  -27,  -34
1511102, 1710334743, "2024/3/13 12:59:3",  9,  -59,  1002,  0,  -1,  -1,  -10,  -25,  -35
1511302, 1710334743, "2024/3/13 12:59:3",  2,  -56,  1002,  0,  0,  -1,  -9,  -24,  -36
1511502, 1710334743, "2024/3/13 12:59:3",  4,  -59,  1004,  0,  0,  -1,  -11,  -27,  -34
1511702, 1710334743, "2024/3/13 12:59:3",  2,  -65,  1004,  0,  0,  0,  -10,  -28,  -34
1511902, 1710334743, "2024/3/13 12:59:3",  8,  -62,  1003,  0,  0,  -1,  -10,  -28,  -36
1512102, 1710334744, "2024/3/13 12:59:4",  8,  -57,  1004,  0,  0,  -1,  -11,  -26,  -34
1512302, 1710334744, "2024/3/13 12:59:4",  5,  -52,  1002,  0,  -1,  -1,  -9,  -26,  -35
1512502, 1710334744, "2024/3/13 12:59:4",  5,  -57,  1004,  0,  0,  -1,  -11,  -28,  -34
1512702, 1710334744, "2024/3/13 12:59:4",  4,  -62,  999,  0,  0,  -1,  -11,  -26,  -35
1512902, 1710334744, "2024/3/13 12:59:4",  9,  -62,  1005,  0,  0,  -1,  -10,  -25,  -34
1513102, 1710334745, "2024/3/13 12:59:5",  5,  -58,  1005,  0,  0,  0,  -10,  -26,  -36
1513302, 1710334745, "2024/3/13 12:59:5",  3,  -56,  1000,  0,  0,  -1,  -10,  -28,  -34
1513502, 1710334745, "2024/3/13 12:59:5",  9,  -60,  1004,  0,  0,  0,  -10,  -25,  -35
1513702, 1710334745, "2024/3/13 12:59:5",  8,  -56,  1001,  0,  0,  -1,  -11,  -27,  -35
1513902, 1710334745, "2024/3/13 12:59:5",  2,  -56,  1003,  0,  0,  -1,  -10,  -25,  -33
1514102, 1710334746, "2024/3/13 12:59:6",  3,  -57,  1002,  0,  0,  0,  -12,  -26,  -34
1514302, 1710334746, "2024/3/13 12:59:6",  5,  -60,  999,  0,  0,  0,  -11,  -26,  -34
1514502, 1710334746, "2024/3/13 12:59:6",  9,  -54,  1005,  0,  -1,  -1,  -9,  -26,  -35
1514702, 1710334746, "2024/3/13 12:59:6",  4,  -56,  1003,  0,  0,  -1,  -9,  -27,  -34
1514902, 1710334746, "2024/3/13 12:59:6",  7,  -58,  1002,  0,  0,  -1,  -9,  -28,  -36
1515102, 1710334747, "2024/3/13 12:59:7",  1,  -54,  1000,  0,  -1,  -1,  -9,  -28,  -34
1515302, 1710334747, "2024/3/13 12:59:7",  5,  -57,  1001,  0,  0,  -1,  -11,  -26,  -35
1515502, 1710334747, "2024/3/13 12:59:7",  2,  -58,  1002,  0,  0,  -1,  -9,  -26,  -36
1515702, 1710334747, "2024/3/13 12:59:7",  6,  -59,  1001,  0,  0,  0,  -11,  -27,  -34
1515902, 1710334747, "2024/3/13 12:59:7",  3,  -56,  1003,  0,  0,  0,  -11,  -26,  -35
1516102, 1710334748, "2024/3/13 12:59:8",  3,  -63,  1003,  0,  0,  0,  -10,  -28,  -34
1516302, 1710334748, "2024/3/13 12:59:8",  5,  -52,  1006,  0,  0,  -1,  -11,  -26,  -34
1516502, 1710334748, "2024/3/13 12:59:8",  3,  -61,  1004,  0,  0,  -1,  -10,  -25,  -35
1516702, 1710334748, "2024/3/13 12:59:8",  9,  -53,  1007,  0,  0,  -1,  -9,  -28,  -36
1516902, 1710334748, "2024/3/13 12:59:8",  4,  -63,  1005,  0,  0,  -1,  -9,  -27,  -34
1517102, 1710334749, "2024/3/13 12:59:9",  3,  -51,  1004,  0,  0,  -1,  -10,  -27,  -36
1517302, 1710334749, "2024/3/13 12:59:9",  9,  -61,  1001,  0,  0,  -1,  -11,  -29,  -35
1517502, 1710334749, "2024/3/13 12:59:9",  1,  -59,  1002,  0,  0,  -1,  -10,  -26,  -34
1517702, 1710334749, "2024/3/13 12:59:9",  5,  -56,  1003,  0,  0,  -1,  -10,  -26,  -33
1517902, 1710334749, "2024/3/13 12:59:9",  -2,  -61,  1002,  0,  0,  -1,  -11,  -25,  -35
1518102, 1710334750, "2024/3/13 12:59:10",  2,  -55,  1006,  0,  0,  -1,  -9,  -25,  -37
1518302, 1710334750, "2024/3/13 12:59:10",  7,  -63,  1003,  0,  0,  0,  -9,  -27,  -36
1518502, 1710334750, "2024/3/13 12:59:10",  0,  -54,  1006,  0,  0,  -1,  -11,  -27,  -36
1518702, 1710334750, "2024/3/13 12:59:10",  4,  -54,  1004,  0,  0,  0,  -10,  -26,  -35
1518902, 1710334750, "2024/3/13 12:59:10",  6,  -57,  1003,  0,  0,  -1,  -12,  -27,  -36
1519102, 1710334751, "2024/3/13 12:59:11",  5,  -66,  1004,  0,  -1,  -1,  -11,  -27,  -35
1519302, 1710334751, "2024/3/13 12:59:11",  5,  -59,  1002,  0,  -1,  -1,  -10,  -26,  -33
1519502, 1710334751, "2024/3/13 12:59:11",  5,  -61,  999,  0,  0,  0,  -11,  -26,  -36
1519702, 1710334751, "2024/3/13 12:59:11",  4,  -56,  1006,  0,  0,  0,  -8,  -25,  -35
1519902, 1710334751, "2024/3/13 12:59:11",  -2,  -64,  1003,  0,  0,  0,  -10,  -26,  -35
1520102, 1710334752, "2024/3/13 12:59:12",  5,  -58,  1004,  0,  0,  0,  -11,  -27,  -35
1520302, 1710334752, "2024/3/13 12:59:12",  6,  -64,  1000,  0,  0,  -1,  -12,  -25,  -36
1520502, 1710334752, "2024/3/13 12:59:12",  2,  -58,  1004,  0,  0,  -1,  -10,  -28,  -36
1520702, 1710334752, "2024/3/13 12:59:12",  6,  -55,  1006,  0,  -1,  -1,  -10,  -26,  -35
1520902, 1710334752, "2024/3/13 12:59:12",  2,  -53,  1003,  0,  0,  0,  -9,  -26,  -35
1521102, 1710334753, "2024/3/13 12:59:13",  5,  -60,  1001,  0,  0,  -1,  -11,  -26,  -35
1521302, 1710334753, "2024/3/13 12:59:13",  7,  -54,  1003,  0,  0,  -1,  -10,  -27,  -36
1521502, 1710334753, "2024/3/13 12:59:13",  4,  -57,  1002,  0,  -1,  -1,  -10,  -25,  -35
1521702, 1710334753, "2024/3/13 12:59:13",  2,  -59,  1001,  0,  0,  -1,  -11,  -25,  -36
1521902, 1710334753, "2024/3/13 12:59:13",  3,  -51,  1002,  0,  0,  0,  -11,  -27,  -35
1522102, 1710334754, "2024/3/13 12:59:14",  4,  -61,  1005,  0,  -1,  -1,  -10,  -26,  -35
1522302, 1710334754, "2024/3/13 12:59:14",  4,  -53,  1006,  0,  0,  -1,  -10,  -26,  -34
1522502, 1710334754, "2024/3/13 12:59:14",  11,  -59,  1002,  0,  0,  0,  -10,  -27,  -36
1522702, 1710334754, "2024/3/13 12:59:14",  6,  -58,  1005,  0,  0,  -1,  -11,  -26,  -33
1522902, 1710334754, "2024/3/13 12:59:14",  6,  -57,  1004,  0,  0,  0,  -10,  -27,  -34
1523102, 1710334755, "2024/3/13 12:59:15",  6,  -59,  1003,  0,  0,  -1,  -12,  -26,  -36
1523302, 1710334755, "2024/3/13 12:59:15",  8,  -57,  1004,  0,  0,  0,  -10,  -26,  -36
1523502, 1710334755, "2024/3/13 12:59:15",  1,  -52,  1002,  0,  0,  -1,  -12,  -26,  -35
1523702, 1710334755, "2024/3/13 12:59:15",  5,  -58,  1001,  0,  0,  -1,  -10,  -27,  -35
1523902, 1710334755, "2024/3/13 12:59:15",  8,  -60,  1003,  0,  0,  0,  -11,  -26,  -36
1524102, 1710334756, "2024/3/13 12:59:16",  6,  -59,  1006,  0,  -1,  -1,  -11,  -27,  -34
1524302, 1710334756, "2024/3/13 12:59:16",  4,  -62,  1005,  0,  0,  0,  -10,  -26,  -35
1524502, 1710334756, "2024/3/13 12:59:16",  8,  -58,  1004,  0,  0,  0,  -11,  -25,  -35
1524702, 1710334756, "2024/3/13 12:59:16",  2,  -58,  1004,  0,  0,  -1,  -11,  -27,  -36
1524902, 1710334756, "2024/3/13 12:59:16",  0,  -57,  1003,  0,  0,  0,  -10,  -26,  -35
1525102, 1710334757, "2024/3/13 12:59:17",  7,  -58,  1005,  0,  0,  -1,  -10,  -25,  -35
1525302, 1710334757, "2024/3/13 12:59:17",  5,  -59,  1007,  0,  0,  0,  -11,  -27,  -34
1525502, 1710334757, "2024/3/13 12:59:17",  3,  -54,  1002,  0,  0,  -1,  -10,  -27,  -36
1525702, 1710334757, "2024/3/13 12:59:17",  6,  -63,  1006,  0,  -1,  -1,  -10,  -27,  -37
1525902, 1710334757, "2024/3/13 12:59:17",  7,  -60,  1004,  0,  0,  -1,  -9,  -27,  -36
1526102, 1710334758, "2024/3/13 12:59:18",  1,  -54,  1006,  0,  0,  -1,  -9,  -26,  -35
1526302, 1710334758, "2024/3/13 12:59:18",  7,  -58,  1002,  0,  0,  0,  -10,  -27,  -37
1526502, 1710334758, "2024/3/13 12:59:18",  0,  -58,  1004,  0,  -1,  -1,  -10,  -25,  -34
1526702, 1710334758, "2024/3/13 12:59:18",  11,  -64,  1003,  0,  0,  0,  -10,  -28,  -34
1526902, 1710334758, "2024/3/13 12:59:18",  2,  -54,  1005,  0,  0,  0,  -10,  -26,  -35
1527102, 1710334759, "2024/3/13 12:59:19",  6,  -57,  1000,  0,  0,  0,  -9,  -25,  -35
1527302, 1710334759, "2024/3/13 12:59:19",  6,  -55,  1003,  0,  0,  -1,  -12,  -26,  -35
1527502, 1710334759, "2024/3/13 12:59:19",  3,  -59,  1006,  0,  0,  -1,  -10,  -27,  -35
1527702, 1710334759, "2024/3/13 12:59:19",  4,  -59,  1003,  0,  0,  -1,  -10,  -27,  -35
1527902, 1710334759, "2024/3/13 12:59:19",  2,  -59,  1001,  0,  0,  -1,  -9,  -26,  -35
1528102, 1710334760, "2024/3/13 12:59:20",  2,  -60,  1004,  0,  -1,  0,  -10,  -26,  -36
1528302, 1710334760, "2024/3/13 12:59:20",  1,  -61,  1007,  0,  -1,  -1,  -10,  -28,  -36
1528502, 1710334760, "2024/3/13 12:59:20",  3,  -55,  1005,  0,  0,  0,  -11,  -26,  -35
1528702, 1710334760, "2024/3/13 12:59:20",  5,  -52,  1003,  0,  0,  -1,  -9,  -27,  -36
1528902, 1710334760, "2024/3/13 12:59:20",  6,  -60,  1004,  0,  0,  0,  -10,  -27,  -35
1529102, 1710334761, "2024/3/13 12:59:21",  9,  -64,  1001,  0,  -1,  0,  -10,  -24,  -35
1529302, 1710334761, "2024/3/13 12:59:21",  1,  -59,  1003,  0,  0,  0,  -10,  -26,  -35
1529502, 1710334761, "2024/3/13 12:59:21",  4,  -52,  1006,  0,  0,  0,  -12,  -27,  -34
1529702, 1710334761, "2024/3/13 12:59:21",  9,  -54,  1004,  0,  0,  -1,  -10,  -25,  -36
1529902, 1710334761, "2024/3/13 12:59:21",  4,  -54,  1005,  0,  0,  -1,  -11,  -26,  -36
1530102, 1710334762, "2024/3/13 12:59:22",  1,  -55,  1003,  0,  0,  -1,  -11,  -26,  -34
1530302, 1710334762, "2024/3/13 12:59:22",  8,  -60,  1003,  0,  0,  -1,  -9,  -26,  -37
1530502, 1710334762, "2024/3/13 12:59:22",  4,  -56,  1006,  0,  0,  -1,  -9,  -27,  -36
1530702, 1710334762, "2024/3/13 12:59:22",  2,  -51,  1001,  0,  -1,  0,  -10,  -28,  -36
1530902, 1710334762, "2024/3/13 12:59:22",  10,  -65,  1008,  0,  0,  0,  -10,  -25,  -33
1531102, 1710334763, "2024/3/13 12:59:23",  5,  -56,  1003,  0,  0,  -1,  -10,  -26,  -34
1531302, 1710334763, "2024/3/13 12:59:23",  6,  -59,  1005,  0,  0,  0,  -9,  -27,  -35
1531502, 1710334763, "2024/3/13 12:59:23",  7,  -63,  1008,  0,  0,  0,  -10,  -28,  -35
1531702, 1710334763, "2024/3/13 12:59:23",  5,  -59,  1003,  0,  0,  -1,  -10,  -26,  -34
1531902, 1710334763, "2024/3/13 12:59:23",  5,  -61,  1005,  0,  0,  -1,  -9,  -25,  -35
1532102, 1710334764, "2024/3/13 12:59:24",  3,  -57,  1001,  0,  0,  0,  -9,  -26,  -36
1532302, 1710334764, "2024/3/13 12:59:24",  12,  -54,  1002,  0,  -1,  -1,  -11,  -27,  -35
1532502, 1710334764, "2024/3/13 12:59:24",  1,  -56,  1002,  0,  0,  -1,  -11,  -27,  -36
1532702, 1710334764, "2024/3/13 12:59:24",  4,  -58,  1000,  0,  0,  -1,  -9,  -27,  -35
1532902, 1710334764, "2024/3/13 12:59:24",  4,  -57,  1007,  0,  0,  -1,  -10,  -25,  -35
1533102, 1710334765, "2024/3/13 12:59:25",  3,  -52,  1003,  0,  0,  0,  -10,  -26,  -34
1533302, 1710334765, "2024/3/13 12:59:25",  8,  -57,  1000,  0,  0,  -1,  -11,  -26,  -37
1533502, 1710334765, "2024/3/13 12:59:25",  5,  -61,  1003,  0,  0,  -1,  -11,  -26,  -36
1533702, 1710334765, "2024/3/13 12:59:25",  5,  -58,  1004,  0,  0,  -1,  -11,  -26,  -33
1533902, 1710334765, "2024/3/13 12:59:25",  5,  -58,  1004,  0,  0,  0,  -11,  -27,  -35
1534102, 1710334766, "2024/3/13 12:59:26",  10,  -55,  1004,  0,  0,  0,  -10,  -27,  -35
1534302, 1710334766, "2024/3/13 12:59:26",  7,  -59,  1005,  0,  0,  -1,  -12,  -25,  -35
1534502, 1710334766, "2024/3/13 12:59:26",  2,  -57,  1002,  0,  0,  -1,  -11,  -27,  -36
1534702, 1710334766, "2024/3/13 12:59:26",  5,  -61,  1006,  0,  0,  0,  -10,  -27,  -34
1534902, 1710334766, "2024/3/13 12:59:26",  3,  -58,  1001,  0,  0,  -1,  -9,  -26,  -34
1535102, 1710334767, "2024/3/13 12:59:27",  2,  -61,  1005,  0,  0,  -1,  -11,  -26,  -33
1535302, 1710334767, "2024/3/13 12:59:27",  4,  -59,  1006,  0,  0,  0,  -11,  -26,  -35
1535502, 1710334767, "2024/3/13 12:59:27",  7,  -58,  1005,  0,  0,  -1,  -10,  -26,  -36
1535702, 1710334767, "2024/3/13 12:59:27",  3,  -60,  1004,  0,  0,  -1,  -10,  -27,  -35
1535902, 1710334767, "2024/3/13 12:59:27",  2,  -58,  1007,  0,  0,  0,  -10,  -27,  -34
1536102, 1710334768, "2024/3/13 12:59:28",  8,  -57,  1006,  0,  0,  -1,  -10,  -26,  -36
1536302, 1710334768, "2024/3/13 12:59:28",  3,  -55,  1006,  0,  0,  -1,  -11,  -27,  -35
1536502, 1710334768, "2024/3/13 12:59:28",  2,  -56,  1003,  0,  0,  0,  -10,  -26,  -36
1536702, 1710334768, "2024/3/13 12:59:28",  6,  -58,  1006,  0,  -1,  -1,  -11,  -27,  -35
1536902, 1710334768, "2024/3/13 12:59:28",  6,  -59,  1003,  0,  0,  -1,  -10,  -28,  -34
1537102, 1710334769, "2024/3/13 12:59:29",  4,  -56,  1003,  0,  -1,  -1,  -10,  -26,  -36
1537302, 1710334769, "2024/3/13 12:59:29",  4,  -55,  1003,  0,  -1,  0,  -10,  -26,  -35
1537502, 1710334769, "2024/3/13 12:59:29",  2,  -51,  1005,  0,  0,  -1,  -9,  -25,  -35
1537702, 1710334769, "2024/3/13 12:59:29",  9,  -51,  1003,  0,  0,  -1,  -11,  -26,  -36
1537902, 1710334769, "2024/3/13 12:59:29",  9,  -58,  1004,  0,  0,  -1,  -11,  -26,  -34
1538102, 1710334770, "2024/3/13 12:59:30",  2,  -55,  1000,  0,  0,  0,  -10,  -25,  -35
1538302, 1710334770, "2024/3/13 12:59:30",  5,  -59,  1002,  0,  0,  -1,  -10,  -24,  -37
1538502, 1710334770, "2024/3/13 12:59:30",  5,  -51,  1004,  0,  0,  0,  -10,  -27,  -34
1538702, 1710334770, "2024/3/13 12:59:30",  10,  -51,  1005,  0,  0,  -1,  -10,  -25,  -35
1538902, 1710334770, "2024/3/13 12:59:30",  5,  -58,  1004,  0,  0,  -1,  -11,  -27,  -34
1539102, 1710334771, "2024/3/13 12:59:31",  6,  -56,  1000,  0,  0,  0,  -11,  -25,  -35
1539302, 1710334771, "2024/3/13 12:59:31",  6,  -56,  1004,  0,  0,  0,  -12,  -26,  -34
1539502, 1710334771, "2024/3/13 12:59:31",  0,  -58,  1002,  0,  0,  -1,  -10,  -27,  -36
1539702, 1710334771, "2024/3/13 12:59:31",  0,  -60,  1005,  0,  0,  -1,  -9,  -25,  -34
1539902, 1710334771, "2024/3/13 12:59:31",  5,  -54,  1005,  0,  0,  0,  -10,  -27,  -35
1540102, 1710334772, "2024/3/13 12:59:32",  2,  -61,  1005,  0,  0,  -1,  -10,  -27,  -35
1540302, 1710334772, "2024/3/13 12:59:32",  11,  -56,  1006,  0,  0,  0,  -10,  -27,  -36
1540502, 1710334772, "2024/3/13 12:59:32",  5,  -58,  1002,  0,  0,  0,  -9,  -27,  -36
1540702, 1710334772, "2024/3/13 12:59:32",  5,  -54,  1005,  0,  -1,  -1,  -10,  -26,  -35
1540902, 1710334772, "2024/3/13 12:59:32",  10,  -57,  1001,  0,  0,  -1,  -11,  -26,  -34
1541102, 1710334773, "2024/3/13 12:59:33",  8,  -56,  1005,  0,  0,  -1,  -12,  -27,  -34
1541302, 1710334773, "2024/3/13 12:59:33",  3,  -56,  1004,  0,  0,  0,  -9,  -26,  -36
1541502, 1710334773, "2024/3/13 12:59:33",  5,  -54,  1001,  0,  0,  0,  -11,  -26,  -35
1541702, 1710334773, "2024/3/13 12:59:33",  5,  -60,  1004,  0,  -1,  -1,  -11,  -26,  -35
1541902, 1710334773, "2024/3/13 12:59:33",  8,  -61,  1005,  0,  0,  -1,  -10,  -27,  -34
1542102, 1710334774, "2024/3/13 12:59:34",  7,  -59,  1003,  0,  0,  0,  -11,  -26,  -36
1542302, 1710334774, "2024/3/13 12:59:34",  5,  -57,  1007,  0,  0,  -1,  -10,  -25,  -36
1542502, 1710334774, "2024/3/13 12:59:34",  4,  -56,  1003,  0,  0,  0,  -11,  -25,  -35
1542702, 1710334774, "2024/3/13 12:59:34",  8,  -57,  1003,  0,  0,  -1,  -12,  -27,  -36
1542902, 1710334774, "2024/3/13 12:59:34",  3,  -62,  1004,  0,  0,  0,  -11,  -27,  -35
1543102, 1710334775, "2024/3/13 12:59:35",  6,  -56,  1003,  0,  0,  0,  -10,  -27,  -36
1543302, 1710334775, "2024/3/13 12:59:35",  2,  -59,  1004,  0,  0,  0,  -9,  -28,  -35
1543502, 1710334775, "2024/3/13 12:59:35",  7,  -55,  1003,  0,  -1,  -1,  -10,  -26,  -36
1543702, 1710334775, "2024/3/13 12:59:35",  8,  -54,  1008,  0,  0,  0,  -11,  -24,  -36
1543902, 1710334775, "2024/3/13 12:59:35",  3,  -65,  1000,  0,  0,  -1,  -9,  -25,  -36
1544102, 1710334776, "2024/3/13 12:59:36",  2,  -58,  1007,  0,  0,  0,  -10,  -26,  -36
1544302, 1710334776, "2024/3/13 12:59:36",  4,  -60,  1004,  0,  0,  -1,  -10,  -26,  -34
1544502, 1710334776, "2024/3/13 12:59:36",  3,  -54,  1003,  0,  -1,  -1,  -11,  -27,  -35
1544702, 1710334776, "2024/3/13 12:59:36",  8,  -59,  1003,  0,  -1,  -1,  -10,  -25,  -36
1544902, 1710334776, "2024/3/13 12:59:36",  3,  -56,  999,  0,  0,  -1,  -11,  -25,  -35
1545102, 1710334777, "2024/3/13 12:59:37",  0,  -59,  1001,  0,  0,  0,  -11,  -27,  -35
1545302, 1710334777, "2024/3/13 12:59:37",  1,  -56,  1004,  0,  0,  0,  -10,  -25,  -35
1545502, 1710334777, "2024/3/13 12:59:37",  6,  -58,  1004,  0,  0,  -1,  -9,  -25,  -35
1545702, 1710334777, "2024/3/13 12:59:37",  5,  -58,  1000,  0,  0,  0,  -11,  -25,  -35
1545902, 1710334777, "2024/3/13 12:59:37",  1,  -60,  1007,  0,  0,  -1,  -9,  -25,  -35
1546102, 1710334778, "2024/3/13 12:59:38",  6,  -59,  1003,  0,  0,  -1,  -11,  -26,  -37
1546302, 1710334778, "2024/3/13 12:59:38",  4,  -63,  1001,  0,  0,  0,  -11,  -27,  -35
1546502, 1710334778, "2024/3/13 12:59:38",  6,  -51,  1004,  0,  0,  0,  -11,  -27,  -35
1546702, 1710334778, "2024/3/13 12:59:38",  5,  -60,  1000,  0,  0,  0,  -10,  -27,  -34
1546902, 1710334778, "2024/3/13 12:59:38",  1,  -55,  1006,  0,  0,  0,  -10,  -27,  -36
1547102, 1710334779, "2024/3/13 12:59:39",  0,  -55,  1002,  0,  0,  -1,  -10,  -25,  -35
1547302, 1710334779, "2024/3/13 12:59:39",  2,  -59,  1006,  0,  0,  0,  -11,  -26,  -33
1547502, 1710334779, "2024/3/13 12:59:39",  5,  -52,  1002,  0,  0,  -1,  -9,  -27,  -35
1547702, 1710334779, "2024/3/13 12:59:39",  6,  -61,  1005,  0,  0,  0,  -9,  -26,  -35
1547902, 1710334779, "2024/3/13 12:59:39",  8,  -53,  1002,  0,  0,  0,  -11,  -27,  -35
1548102, 1710334780, "2024/3/13 12:59:40",  6,  -61,  1007,  0,  0,  -1,  -10,  -25,  -35
1548302, 1710334780, "2024/3/13 12:59:40",  6,  -52,  1002,  0,  0,  -1,  -12,  -26,  -34
1548502, 1710334780, "2024/3/13 12:59:40",  10,  -60,  1003,  0,  0,  0,  -11,  -26,  -34
1548702, 1710334780, "2024/3/13 12:59:40",  5,  -62,  1005,  0,  0,  -1,  -10,  -28,  -36
1548902, 1710334780, "2024/3/13 12:59:40",  6,  -57,  1005,  0,  0,  -1,  -9,  -25,  -36
1549102, 1710334781, "2024/3/13 12:59:41",  6,  -59,  999,  0,  -1,  -1,  -10,  -26,  -35
1549302, 1710334781, "2024/3/13 12:59:41",  5,  -55,  1003,  0,  0,  0,  -10,  -25,  -34
1549502, 1710334781, "2024/3/13 12:59:41",  6,  -49,  1008,  0,  -1,  0,  -10,  -26,  -34
1549702, 1710334781, "2024/3/13 12:59:41",  1,  -55,  1003,  0,  0,  -1,  -10,  -26,  -36
1549902, 1710334781, "2024/3/13 12:59:41",  5,  -56,  1002,  0,  0,  -1,  -10,  -26,  -36
1550102, 1710334782, "2024/3/13 12:59:42",  5,  -53,  1005,  0,  0,  0,  -11,  -26,  -35
1550302, 1710334782, "2024/3/13 12:59:42",  1,  -60,  1003,  0,  0,  0,  -11,  -26,  -34
1550502, 1710334782, "2024/3/13 12:59:42",  6,  -55,  1007,  0,  0,  -1,  -11,  -27,  -34
1550702, 1710334782, "2024/3/13 12:59:42",  7,  -55,  1004,  0,  0,  -1,  -12,  -26,  -35
1550902, 1710334782, "2024/3/13 12:59:42",  6,  -57,  1000,  0,  0,  -1,  -10,  -27,  -36
1551102, 1710334783, "2024/3/13 12:59:43",  1,  -56,  998,  0,  0,  0,  -10,  -25,  -35
1551302, 1710334783, "2024/3/13 12:59:43",  3,  -57,  1002,  0,  0,  -1,  -10,  -27,  -36
1551502, 1710334783, "2024/3/13 12:59:43",  7,  -59,  1005,  0,  -1,  0,  -11,  -26,  -35
1551702, 1710334783, "2024/3/13 12:59:43",  4,  -59,  1000,  0,  0,  0,  -10,  -26,  -35
1551902, 1710334783, "2024/3/13 12:59:43",  1,  -58,  1000,  0,  0,  0,  -9,  -26,  -35
1552102, 1710334784, "2024/3/13 12:59:44",  4,  -56,  1004,  0,  0,  -1,  -11,  -26,  -35
1552302, 1710334784, "2024/3/13 12:59:44",  6,  -63,  1004,  0,  0,  0,  -11,  -26,  -35
1552502, 1710334784, "2024/3/13 12:59:44",  5,  -53,  1007,  0,  0,  -1,  -9,  -27,  -36
1552702, 1710334784, "2024/3/13 12:59:44",  10,  -58,  1007,  0,  0,  0,  -11,  -27,  -35
1552902, 1710334784, "2024/3/13 12:59:44",  6,  -58,  1008,  0,  -1,  -1,  -11,  -26,  -35
1553102, 1710334785, "2024/3/13 12:59:45",  1,  -62,  1003,  0,  0,  -1,  -10,  -25,  -36
1553302, 1710334785, "2024/3/13 12:59:45",  3,  -56,  1003,  0,  0,  -1,  -9,  -27,  -37
1553502, 1710334785, "2024/3/13 12:59:45",  0,  -51,  1000,  0,  0,  0,  -10,  -27,  -35
1553702, 1710334785, "2024/3/13 12:59:45",  6,  -55,  1002,  0,  0,  0,  -10,  -25,  -35
1553902, 1710334785, "2024/3/13 12:59:45",  4,  -61,  1000,  0,  0,  -1,  -11,  -26,  -35
1554102, 1710334786, "2024/3/13 12:59:46",  5,  -58,  1003,  0,  0,  -1,  -11,  -26,  -36
1554302, 1710334786, "2024/3/13 12:59:46",  6,  -54,  1005,  0,  0,  -1,  -11,  -27,  -36
1554502, 1710334786, "2024/3/13 12:59:46",  4,  -61,  1001,  0,  0,  -1,  -11,  -26,  -35
1554702, 1710334786, "2024/3/13 12:59:46",  1,  -55,  1005,  0,  0,  -1,  -10,  -27,  -36
1554902, 1710334786, "2024/3/13 12:59:46",  3,  -58,  1005,  0,  -1,  -1,  -11,  -27,  -36
1555102, 1710334787, "2024/3/13 12:59:47",  0,  -56,  1003,  0,  -1,  -1,  -10,  -27,  -35
1555302, 1710334787, "2024/3/13 12:59:47",  -1,  -53,  1003,  0,  0,  -1,  -10,  -27,  -33
1555502, 1710334787, "2024/3/13 12:59:47",  0,  -51,  1006,  0,  0,  -1,  -9,  -27,  -35
1555702, 1710334787, "2024/3/13 12:59:47",  7,  -45,  1001,  0,  -1,  -1,  -12,  -26,  -36
1555902, 1710334787, "2024/3/13 12:59:47",  13,  -56,  1004,  0,  0,  0,  -11,  -26,  -35
1556102, 1710334788, "2024/3/13 12:59:48",  14,  -57,  1001,  0,  -1,  -1,  -9,  -26,  -36
1556302, 1710334788, "2024/3/13 12:59:48",  6,  -55,  1000,  0,  0,  0,  -9,  -25,  -36
1556502, 1710334788, "2024/3/13 12:59:48",  14,  -57,  1013,  0,  0,  -1,  -12,  -25,  -37
1556702, 1710334788, "2024/3/13 12:59:48",  11,  -60,  1011,  0,  0,  0,  -10,  -25,  -35
1556902, 1710334788, "2024/3/13 12:59:48",  6,  -55,  1003,  0,  0,  -1,  -11,  -25,  -37
1557102, 1710334789, "2024/3/13 12:59:49",  6,  -65,  1001,  0,  0,  0,  -10,  -26,  -35
1557302, 1710334789, "2024/3/13 12:59:49",  6,  -67,  1004,  0,  0,  0,  -10,  -27,  -35
1557502, 1710334789, "2024/3/13 12:59:49",  3,  -60,  1003,  0,  0,  0,  -10,  -27,  -36
1557702, 1710334789, "2024/3/13 12:59:49",  -1,  -54,  1001,  0,  0,  -1,  -11,  -26,  -35
1557902, 1710334789, "2024/3/13 12:59:49",  0,  -54,  1002,  0,  -1,  -1,  -11,  -25,  -34
1558102, 1710334790, "2024/3/13 12:59:50",  2,  -50,  1001,  0,  0,  -1,  -10,  -27,  -35
1558302, 1710334790, "2024/3/13 12:59:50",  4,  -54,  1003,  0,  0,  0,  -10,  -27,  -36
1558502, 1710334790, "2024/3/13 12:59:50",  1,  -59,  1003,  0,  -1,  -1,  -9,  -26,  -35
1558702, 1710334790, "2024/3/13 12:59:50",  6,  -63,  1003,  0,  -1,  -1,  -9,  -25,  -36
1558902, 1710334790, "2024/3/13 12:59:50",  7,  -61,  1006,  0,  0,  0,  -9,  -27,  -35
1559102, 1710334791, "2024/3/13 12:59:51",  10,  -55,  1004,  0,  0,  -1,  -11,  -27,  -35
1559302, 1710334791, "2024/3/13 12:59:51",  9,  -57,  1001,  0,  0,  0,  -9,  -26,  -35
1559502, 1710334791, "2024/3/13 12:59:51",  11,  -61,  1003,  0,  0,  0,  -11,  -25,  -36
1559702, 1710334791, "2024/3/13 12:59:51",  6,  -66,  1004,  0,  0,  -1,  -9,  -27,  -35
1559902, 1710334791, "2024/3/13 12:59:51",  0,  -57,  1004,  0,  0,  -1,  -11,  -25,  -35
1560102, 1710334792, "2024/3/13 12:59:52",  1,  -58,  1006,  0,  0,  0,  -11,  -27,  -34
1560302, 1710334792, "2024/3/13 12:59:52",  2,  -62,  1005,  0,  0,  0,  -12,  -26,  -36
1560502, 1710334792, "2024/3/13 12:59:52",  -2,  -55,  1005,  0,  0,  0,  -10,  -25,  -36
1560702, 1710334792, "2024/3/13 12:59:52",  -5,  -56,  1001,  0,  0,  -1,  -11,  -26,  -34
1560902, 1710334792, "2024/3/13 12:59:52",  1,  -56,  1006,  0,  0,  0,  -9,  -27,  -35
1561102, 1710334793, "2024/3/13 12:59:53",  4,  -57,  1000,  0,  0,  0,  -11,  -27,  -34
1561302, 1710334793, "2024/3/13 12:59:53",  2,  -59,  1004,  0,  0,  -1,  -11,  -27,  -35
1561502, 1710334793, "2024/3/13 12:59:53",  9,  -53,  1003,  0,  0,  -1,  -10,  -27,  -35
1561702, 1710334793, "2024/3/13 12:59:53",  10,  -59,  1000,  0,  0,  -1,  -11,  -26,  -36
1561902, 1710334793, "2024/3/13 12:59:53",  12,  -62,  1004,  0,  0,  0,  -10,  -27,  -35
1562102, 1710334794, "2024/3/13 12:59:54",  10,  -57,  1004,  0,  0,  -1,  -11,  -25,  -36
1562302, 1710334794, "2024/3/13 12:59:54",  12,  -64,  1006,  0,  0,  0,  -10,  -29,  -35
1562502, 1710334794, "2024/3/13 12:59:54",  9,  -55,  1006,  0,  0,  -1,  -11,  -26,  -34
1562702, 1710334794, "2024/3/13 12:59:54",  3,  -57,  1008,  0,  0,  0,  -11,  -25,  -35
1562902, 1710334794, "2024/3/13 12:59:54",  6,  -55,  1002,  0,  0,  0,  -11,  -25,  -34
1563102, 1710334795, "2024/3/13 12:59:55",  9,  -59,  1006,  0,  0,  -1,  -9,  -27,  -36
1563302, 1710334795, "2024/3/13 12:59:55",  6,  -56,  1005,  0,  0,  -1,  -11,  -26,  -36
1563502, 1710334795, "2024/3/13 12:59:55",  1,  -60,  1005,  0,  0,  -1,  -10,  -25,  -35
1563702, 1710334795, "2024/3/13 12:59:55",  2,  -62,  1006,  0,  0,  0,  -11,  -27,  -34
1563902, 1710334795, "2024/3/13 12:59:55",  -1,  -54,  1006,  0,  0,  0,  -10,  -25,  -34
1564102, 1710334796, "2024/3/13 12:59:56",  0,  -58,  1005,  0,  0,  0,  -9,  -25,  -36
1564302, 1710334796, "2024/3/13 12:59:56",  3,  -63,  1001,  0,  -1,  -1,  -10,  -26,  -34
1564502, 1710334796, "2024/3/13 12:59:56",  -6,  -58,  993,  0,  -1,  0,  -10,  -27,  -36
1564702, 1710334796, "2024/3/13 12:59:56",  12,  -59,  1007,  0,  0,  -1,  -10,  -27,  -35
1564902, 1710334796, "2024/3/13 12:59:56",  11,  -53,  1000,  0,  0,  -1,  -12,  -27,  -35
1565102, 1710334797, "2024/3/13 12:59:57",  8,  -59,  1002,  0,  -1,  0,  -10,  -26,  -34
1565302, 1710334797, "2024/3/13 12:59:57",  6,  -62,  1007,  0,  0,  0,  -9,  -26,  -35
1565502, 1710334797, "2024/3/13 12:59:57",  8,  -59,  1005,  0,  0,  -1,  -10,  -27,  -36
1565702, 1710334797, "2024/3/13 12:59:57",  4,  -63,  1003,  0,  0,  -1,  -11,  -25,  -36
1565902, 1710334797, "2024/3/13 12:59:57",  -1,  -60,  999,  0,  -1,  -1,  -11,  -25,  -36
1566102, 1710334798, "2024/3/13 12:59:58",  -1,  -59,  1005,  0,  0,  -1,  -10,  -25,  -36
1566302, 1710334798, "2024/3/13 12:59:58",  -1,  -61,  1000,  0,  0,  0,  -9,  -27,  -34
1566502, 1710334798, "2024/3/13 12:59:58",  -2,  -52,  1001,  0,  0,  -1,  -10,  -26,  -34
1566702, 1710334798, "2024/3/13 12:59:58",  3,  -57,  1005,  0,  0,  -1,  -10,  -26,  -35
1566902, 1710334798, "2024/3/13 12:59:58",  9,  -60,  1005,  0,  0,  -1,  -10,  -26,  -36
1567102, 1710334799, "2024/3/13 12:59:59",  11,  -60,  1001,  0,  0,  -1,  -12,  -27,  -35
1567302, 1710334799, "2024/3/13 12:59:59",  10,  -62,  1002,  0,  0,  -1,  -10,  -26,  -35
1567502, 1710334799, "2024/3/13 12:59:59",  9,  -61,  1006,  0,  0,  -1,  -11,  -27,  -35
1567702, 1710334799, "2024/3/13 12:59:59",  10,  -59,  1006,  0,  0,  0,  -10,  -28,  -36
1567902, 1710334799, "2024/3/13 12:59:59",  4,  -60,  1003,  0,  0,  -1,  -10,  -26,  -35
1568102, 1710334800, "2024/3/13 13:0:0",  0,  -59,  1010,  0,  0,  -1,  -11,  -27,  -35
1568302, 1710334800, "2024/3/13 13:0:0",  0,  -60,  1003,  0,  0,  -1,  -10,  -26,  -36
1568502, 1710334800, "2024/3/13 13:0:0",  -2,  -57,  1002,  0,  -1,  -1,  -12,  -27,  -34
1568702, 1710334800, "2024/3/13 13:0:0",  -12,  -56,  988,  0,  0,  -1,  -10,  -26,  -34
1568902, 1710334800, "2024/3/13 13:0:0",  0,  -59,  1001,  0,  0,  0,  -11,  -27,  -35
1569102, 1710334801, "2024/3/13 13:0:1",  4,  -56,  1006,  0,  0,  -1,  -9,  -28,  -35
1569302, 1710334801, "2024/3/13 13:0:1",  10,  -62,  1004,  0,  0,  0,  -11,  -25,  -35
1569502, 1710334801, "2024/3/13 13:0:1",  8,  -54,  1000,  0,  0,  0,  -9,  -27,  -36
1569702, 1710334801, "2024/3/13 13:0:1",  13,  -59,  1004,  0,  0,  0,  -11,  -27,  -35
1569902, 1710334801, "2024/3/13 13:0:1",  9,  -61,  1002,  0,  0,  0,  -10,  -26,  -36
1570102, 1710334802, "2024/3/13 13:0:2",  14,  -60,  1003,  0,  0,  0,  -10,  -27,  -34
1570302, 1710334802, "2024/3/13 13:0:2",  16,  -60,  1003,  0,  0,  -1,  -12,  -27,  -35
1570502, 1710334802, "2024/3/13 13:0:2",  13,  -57,  1004,  0,  0,  -1,  -11,  -27,  -35
1570702, 1710334802, "2024/3/13 13:0:2",  7,  -57,  1005,  0,  0,  0,  -12,  -27,  -35
1570902, 1710334802, "2024/3/13 13:0:2",  5,  -55,  1005,  0,  0,  -1,  -11,  -26,  -36
1571102, 1710334803, "2024/3/13 13:0:3",  -2,  -57,  1004,  0,  0,  -1,  -11,  -27,  -36
1571302, 1710334803, "2024/3/13 13:0:3",  -3,  -63,  1006,  0,  0,  -1,  -11,  -26,  -35
1571502, 1710334803, "2024/3/13 13:0:3",  -4,  -67,  1002,  0,  -1,  0,  -11,  -26,  -35
1571702, 1710334803, "2024/3/13 13:0:3",  -5,  -62,  1005,  0,  0,  0,  -9,  -28,  -36
1571902, 1710334803, "2024/3/13 13:0:3",  -7,  -62,  999,  0,  0,  -1,  -13,  -28,  -34
1572102, 1710334804, "2024/3/13 13:0:4",  -6,  -64,  1003,  0,  0,  0,  -10,  -26,  -36
1572302, 1710334804, "2024/3/13 13:0:4",  0,  -64,  1004,  0,  0,  0,  -11,  -26,  -36
1572502, 1710334804, "2024/3/13 13:0:4",  -3,  -55,  1002,  0,  0,  -1,  -11,  -25,  -36
1572702, 1710334804, "2024/3/13 13:0:4",  -2,  -52,  1004,  0,  0,  -1,  -9,  -26,  -34
1572902, 1710334804, "2024/3/13 13:0:4",  4,  -51,  1002,  0,  0,  -1,  -10,  -27,  -35
1573102, 1710334805, "2024/3/13 13:0:5",  2,  -56,  1007,  0,  0,  0,  -10,  -26,  -35
1573302, 1710334805, "2024/3/13 13:0:5",  12,  -61,  1000,  0,  0,  -1,  -11,  -25,  -36
1573502, 1710334805, "2024/3/13 13:0:5",  4,  -57,  999,  0,  0,  0,  -11,  -25,  -36
1573702, 1710334805, "2024/3/13 13:0:5",  11,  -56,  999,  0,  0,  -1,  -10,  -26,  -36
1573902, 1710334805, "2024/3/13 13:0:5",  14,  -59,  1000,  0,  0,  -1,  -12,  -26,  -36
1574102, 1710334806, "2024/3/13 13:0:6",  10,  -53,  997,  0,  -1,  0,  -11,  -27,  -36
1574302, 1710334806, "2024/3/13 13:0:6",  12,  -64,  1007,  0,  0,  0,  -10,  -26,  -35
1574502, 1710334806, "2024/3/13 13:0:6",  7,  -59,  1008,  0,  0,  0,  -9,  -25,  -35
1574702, 1710334806, "2024/3/13 13:0:6",  9,  -54,  1003,  0,  0,  0,  -10,  -26,  -35
1574902, 1710334806, "2024/3/13 13:0:6",  5,  -50,  999,  0,  0,  -1,  -10,  -25,  -36
1575102, 1710334807, "2024/3/13 13:0:7",  1,  -61,  1004,  0,  0,  0,  -10,  -26,  -35
1575302, 1710334807, "2024/3/13 13:0:7",  0,  -55,  1010,  0,  -1,  -1,  -9,  -27,  -36
1575502, 1710334807, "2024/3/13 13:0:7",  0,  -60,  1000,  0,  0,  -1,  -10,  -26,  -35
1575702, 1710334807, "2024/3/13 13:0:7",  0,  -63,  1006,  0,  0,  0,  -10,  -27,  -36
1575902, 1710334807, "2024/3/13 13:0:7",  1,  -64,  1004,  0,  0,  -1,  -12,  -26,  -36
1576102, 1710334808, "2024/3/13 13:0:8",  -4,  -56,  1002,  0,  -1,  0,  -11,  -26,  -35
1576302, 1710334808, "2024/3/13 13:0:8",  2,  -53,  1003,  0,  0,  0,  -12,  -26,  -35
1576502, 1710334808, "2024/3/13 13:0:8",  -9,  -57,  998,  0,  0,  0,  -10,  -26,  -37
1576702, 1710334808, "2024/3/13 13:0:8",  4,  -52,  1004,  1,  0,  -1,  -11,  -27,  -36
1576902, 1710334808, "2024/3/13 13:0:8",  0,  -49,  1003,  0,  0,  0,  -10,  -26,  -36
1577102, 1710334809, "2024/3/13 13:0:9",  3,  -62,  1005,  0,  0,  0,  -9,  -25,  -36
1577302, 1710334809, "2024/3/13 13:0:9",  4,  -64,  1002,  0,  0,  -1,  -12,  -26,  -36
1577502, 1710334809, "2024/3/13 13:0:9",  -2,  -67,  1004,  0,  -1,  0,  -11,  -24,  -36
1577702, 1710334809, "2024/3/13 13:0:9",  3,  -67,  999,  0,  0,  -1,  -11,  -26,  -35
1577902, 1710334809, "2024/3/13 13:0:9",  1,  -57,  1002,  0,  0,  -1,  -11,  -27,  -35
1578102, 1710334810, "2024/3/13 13:0:10",  7,  -61,  1001,  0,  0,  -1,  -9,  -27,  -35
1578302, 1710334810, "2024/3/13 13:0:10",  0,  -50,  995,  0,  0,  -1,  -10,  -26,  -37
1578502, 1710334810, "2024/3/13 13:0:10",  -3,  -64,  1008,  0,  0,  -1,  -12,  -26,  -36
1578702, 1710334810, "2024/3/13 13:0:10",  -1,  -63,  1001,  0,  0,  -1,  -11,  -27,  -36
1578902, 1710334810, "2024/3/13 13:0:10",  -2,  -62,  1007,  0,  0,  -1,  -10,  -26,  -36
1579102, 1710334811, "2024/3/13 13:0:11",  -3,  -65,  1005,  0,  0,  0,  -10,  -24,  -34
1579302, 1710334811, "2024/3/13 13:0:11",  3,  -58,  1004,  0,  -1,  -1,  -10,  -27,  -36
1579502, 1710334811, "2024/3/13 13:0:11",  11,  -53,  1002,  0,  0,  -1,  -9,  -26,  -37
1579702, 1710334811, "2024/3/13 13:0:11",  4,  -58,  997,  0,  0,  -1,  -9,  -25,  -35
1579902, 1710334811, "2024/3/13 13:0:11",  5,  -50,  1002,  0,  0,  0,  -10,  -25,  -34
1580102, 1710334812, "2024/3/13 13:0:12",  7,  -56,  1003,  0,  0,  -1,  -9,  -25,  -35
1580302, 1710334812, "2024/3/13 13:0:12",  4,  -58,  1006,  0,  0,  0,  -11,  -25,  -36
1580502, 1710334812, "2024/3/13 13:0:12",  10,  -55,  1002,  0,  0,  -1,  -9,  -24,  -34
1580702, 1710334812, "2024/3/13 13:0:12",  12,  -58,  1002,  0,  0,  0,  -10,  -25,  -36
1580902, 1710334812, "2024/3/13 13:0:12",  3,  -58,  1006,  0,  0,  -1,  -10,  -28,  -36
1581102, 1710334813, "2024/3/13 13:0:13",  4,  -63,  1005,  0,  0,  0,  -10,  -26,  -35
1581302, 1710334813, "2024/3/13 13:0:13",  1,  -54,  1000,  0,  0,  -1,  -11,  -26,  -34
1581502, 1710334813, "2024/3/13 13:0:13",  -5,  -61,  1008,  0,  0,  0,  -12,  -24,  -34
1581702, 1710334813, "2024/3/13 13:0:13",  4,  -55,  1003,  0,  -1,  -1,  -11,  -25,  -32
1581902, 1710334813, "2024/3/13 13:0:13",  6,  -63,  1001,  0,  0,  -1,  -12,  -27,  -32
1582102, 1710334814, "2024/3/13 13:0:14",  5,  -56,  1001,  0,  -1,  0,  -11,  -25,  -31
1582302, 1710334814, "2024/3/13 13:0:14",  7,  -58,  1004,  0,  0,  0,  -10,  -26,  -31
1582502, 1710334814, "2024/3/13 13:0:14",  9,  -59,  1000,  0,  0,  0,  -11,  -25,  -33
1582702, 1710334814, "2024/3/13 13:0:14",  14,  -60,  1001,  0,  0,  0,  -11,  -25,  -32
1582902, 1710334814, "2024/3/13 13:0:14",  6,  -59,  1002,  0,  0,  -1,  -10,  -27,  -34
1583102, 1710334815, "2024/3/13 13:0:15",  1,  -62,  1000,  0,  0,  0,  -10,  -24,  -33
1583302, 1710334815, "2024/3/13 13:0:15",  6,  -53,  1006,  0,  0,  0,  -10,  -26,  -33
1583502, 1710334815, "2024/3/13 13:0:15",  3,  -55,  1005,  0,  0,  -1,  -10,  -26,  -32
1583702, 1710334815, "2024/3/13 13:0:15",  6,  -55,  1007,  0,  0,  0,  -9,  -24,  -33
1583902, 1710334815, "2024/3/13 13:0:15",  7,  -60,  1004,  0,  0,  -1,  -11,  -25,  -34
1584102, 1710334816, "2024/3/13 13:0:16",  3,  -58,  1000,  0,  0,  -1,  -11,  -27,  -32
1584302, 1710334816, "2024/3/13 13:0:16",  6,  -54,  1006,  0,  0,  0,  -10,  -26,  -32
1584502, 1710334816, "2024/3/13 13:0:16",  4,  -55,  1002,  0,  0,  -1,  -10,  -25,  -33
1584702, 1710334816, "2024/3/13 13:0:16",  3,  -60,  1006,  0,  0,  -1,  -8,  -25,  -33
1584902, 1710334816, "2024/3/13 13:0:16",  5,  -54,  1000,  0,  0,  -1,  -10,  -25,  -32
1585102, 1710334817, "2024/3/13 13:0:17",  -2,  -56,  1006,  0,  0,  -1,  -12,  -26,  -34
1585302, 1710334817, "2024/3/13 13:0:17",  4,  -56,  1006,  0,  0,  0,  -10,  -26,  -34
1585502, 1710334817, "2024/3/13 13:0:17",  0,  -59,  1004,  0,  0,  -1,  -10,  -25,  -33
1585702, 1710334817, "2024/3/13 13:0:17",  8,  -59,  1004,  0,  0,  -1,  -11,  -25,  -34
1585902, 1710334817, "2024/3/13 13:0:17",  6,  -52,  1005,  0,  0,  -1,  -11,  -25,  -34
1586102, 1710334818, "2024/3/13 13:0:18",  0,  -57,  1002,  0,  -1,  -1,  -10,  -26,  -36
1586302, 1710334818, "2024/3/13 13:0:18",  5,  -59,  1007,  0,  0,  0,  -10,  -27,  -33
1586502, 1710334818, "2024/3/13 13:0:18",  9,  -62,  1005,  0,  0,  0,  -11,  -25,  -33
1586702, 1710334818, "2024/3/13 13:0:18",  6,  -52,  1001,  0,  -1,  -1,  -8,  -26,  -34
1586902, 1710334818, "2024/3/13 13:0:18",  3,  -57,  1003,  0,  -1,  -1,  -10,  -26,  -35
1587102, 1710334819, "2024/3/13 13:0:19",  3,  -60,  1004,  0,  -1,  -1,  -10,  -26,  -34
1587302, 1710334819, "2024/3/13 13:0:19",  1,  -62,  1003,  0,  0,  0,  -8,  -27,  -34
1587502, 1710334819, "2024/3/13 13:0:19",  3,  -54,  1007,  0,  0,  -1,  -10,  -26,  -35
1587702, 1710334819, "2024/3/13 13:0:19",  3,  -60,  1005,  0,  0,  0,  -10,  -25,  -32
1587902, 1710334819, "2024/3/13 13:0:19",  2,  -56,  1003,  0,  0,  0,  -10,  -27,  -33
1588102, 1710334820, "2024/3/13 13:0:20",  5,  -57,  1005,  0,  0,  -1,  -10,  -26,  -33
1588302, 1710334820, "2024/3/13 13:0:20",  5,  -55,  1005,  0,  0,  0,  -10,  -25,  -34
1588502, 1710334820, "2024/3/13 13:0:20",  2,  -55,  1003,  0,  0,  -1,  -10,  -28,  -34
1588702, 1710334820, "2024/3/13 13:0:20",  6,  -54,  1003,  0,  0,  -1,  -10,  -26,  -33
1588902, 1710334820, "2024/3/13 13:0:20",  10,  -54,  1005,  0,  0,  0,  -9,  -25,  -33
1589102, 1710334821, "2024/3/13 13:0:21",  5,  -56,  1003,  0,  0,  0,  -11,  -27,  -35
1589302, 1710334821, "2024/3/13 13:0:21",  4,  -58,  1004,  0,  -1,  0,  -11,  -26,  -35
1589502, 1710334821, "2024/3/13 13:0:21",  4,  -58,  1002,  0,  0,  0,  -9,  -24,  -33
1589702, 1710334821, "2024/3/13 13:0:21",  8,  -54,  1004,  0,  0,  0,  -11,  -26,  -33
1589902, 1710334821, "2024/3/13 13:0:21",  9,  -52,  1005,  0,  0,  -1,  -10,  -27,  -34
1590102, 1710334822, "2024/3/13 13:0:22",  7,  -54,  1004,  0,  0,  -1,  -9,  -26,  -35
1590302, 1710334822, "2024/3/13 13:0:22",  4,  -53,  1003,  0,  0,  0,  -10,  -26,  -33
1590502, 1710334822, "2024/3/13 13:0:22",  6,  -56,  1002,  0,  0,  0,  -12,  -25,  -35
1590702, 1710334822, "2024/3/13 13:0:22",  8,  -58,  1004,  0,  0,  -1,  -8,  -25,  -33
1590902, 1710334822, "2024/3/13 13:0:22",  5,  -58,  1002,  0,  0,  0,  -10,  -27,  -33
1591102, 1710334823, "2024/3/13 13:0:23",  6,  -58,  1005,  0,  0,  -1,  -10,  -26,  -34
1591302, 1710334823, "2024/3/13 13:0:23",  8,  -55,  1002,  0,  0,  -1,  -8,  -26,  -33
1591502, 1710334823, "2024/3/13 13:0:23",  9,  -55,  1006,  0,  0,  -1,  -10,  -27,  -33
1591702, 1710334823, "2024/3/13 13:0:23",  5,  -50,  1007,  0,  0,  -1,  -9,  -27,  -33
1591902, 1710334823, "2024/3/13 13:0:23",  2,  -60,  1003,  0,  0,  0,  -12,  -26,  -34
1592102, 1710334824, "2024/3/13 13:0:24",  3,  -54,  1004,  0,  -1,  0,  -10,  -25,  -32
1592302, 1710334824, "2024/3/13 13:0:24",  7,  -56,  1004,  0,  0,  0,  -9,  -26,  -34
1592502, 1710334824, "2024/3/13 13:0:24",  2,  -60,  1001,  0,  0,  -1,  -11,  -24,  -33
1592702, 1710334824, "2024/3/13 13:0:24",  8,  -55,  1001,  0,  0,  -1,  -10,  -25,  -33
1592902, 1710334824, "2024/3/13 13:0:24",  7,  -62,  1005,  0,  0,  -1,  -11,  -25,  -33
1593102, 1710334825, "2024/3/13 13:0:25",  6,  -58,  999,  0,  -1,  -1,  -11,  -27,  -32
1593302, 1710334825, "2024/3/13 13:0:25",  1,  -53,  1009,  0,  -1,  -1,  -10,  -25,  -33
1593502, 1710334825, "2024/3/13 13:0:25",  8,  -59,  1003,  0,  0,  -1,  -9,  -27,  -34
1593702, 1710334825, "2024/3/13 13:0:25",  2,  -62,  1006,  0,  0,  -1,  -10,  -26,  -33
1593902, 1710334825, "2024/3/13 13:0:25",  5,  -58,  1005,  0,  0,  -1,  -8,  -24,  -34
1594102, 1710334826, "2024/3/13 13:0:26",  -1,  -59,  1006,  0,  0,  0,  -10,  -26,  -34
1594302, 1710334826, "2024/3/13 13:0:26",  7,  -61,  1000,  0,  0,  0,  -9,  -27,  -31
1594502, 1710334826, "2024/3/13 13:0:26",  9,  -57,  1003,  0,  0,  -1,  -10,  -25,  -33
1594702, 1710334826, "2024/3/13 13:0:26",  6,  -60,  1001,  0,  0,  -1,  -10,  -26,  -34
1594902, 1710334826, "2024/3/13 13:0:26",  6,  -52,  1003,  0,  0,  0,  -11,  -27,  -34
1595102, 1710334827, "2024/3/13 13:0:27",  3,  -62,  1002,  0,  0,  0,  -11,  -28,  -34
1595302, 1710334827, "2024/3/13 13:0:27",  5,  -59,  1004,  0,  0,  -1,  -9,  -27,  -34
1595502, 1710334827, "2024/3/13 13:0:27",  6,  -56,  1004,  0,  0,  -1,  -9,  -25,  -34
1595702, 1710334827, "2024/3/13 13:0:27",  14,  -58,  1009,  0,  0,  -1,  -8,  -24,  -33
1595902, 1710334827, "2024/3/13 13:0:27",  6,  -60,  1006,  0,  -1,  0,  -10,  -27,  -34
1596102, 1710334828, "2024/3/13 13:0:28",  6,  -61,  1004,  0,  0,  0,  -9,  -26,  -35
1596302, 1710334828, "2024/3/13 13:0:28",  8,  -60,  1002,  0,  0,  0,  -10,  -26,  -33
1596502, 1710334828, "2024/3/13 13:0:28",  3,  -59,  999,  0,  -1,  -1,  -10,  -25,  -34
1596702, 1710334828, "2024/3/13 13:0:28",  4,  -63,  1007,  0,  0,  -1,  -10,  -27,  -34
1596902, 1710334828, "2024/3/13 13:0:28",  3,  -56,  1003,  0,  0,  0,  -10,  -26,  -33
1597102, 1710334829, "2024/3/13 13:0:29",  2,  -54,  1002,  0,  0,  -1,  -9,  -25,  -35
1597302, 1710334829, "2024/3/13 13:0:29",  4,  -60,  1004,  0,  0,  0,  -9,  -26,  -33
1597502, 1710334829, "2024/3/13 13:0:29",  0,  -56,  1004,  0,  -1,  -1,  -10,  -27,  -33
1597702, 1710334829, "2024/3/13 13:0:29",  7,  -57,  1003,  0,  -1,  -1,  -11,  -27,  -34
1597902, 1710334829, "2024/3/13 13:0:29",  3,  -54,  1002,  0,  -1,  0,  -9,  -26,  -34
1598102, 1710334830, "2024/3/13 13:0:30",  3,  -56,  1001,  0,  0,  -1,  -10,  -26,  -34
1598302, 1710334830, "2024/3/13 13:0:30",  11,  -59,  1000,  0,  0,  -1,  -10,  -26,  -33
1598502, 1710334830, "2024/3/13 13:0:30",  6,  -54,  1004,  0,  0,  0,  -10,  -25,  -34
1598702, 1710334830, "2024/3/13 13:0:30",  6,  -58,  1001,  0,  0,  0,  -9,  -25,  -33
1598902, 1710334830, "2024/3/13 13:0:30",  5,  -60,  1001,  0,  0,  -1,  -11,  -27,  -34
1599102, 1710334831, "2024/3/13 13:0:31",  7,  -58,  1002,  0,  0,  -1,  -10,  -26,  -35
1599302, 1710334831, "2024/3/13 13:0:31",  6,  -54,  1005,  0,  0,  -1,  -11,  -25,  -33
1599502, 1710334831, "2024/3/13 13:0:31",  10,  -57,  1005,  0,  0,  -1,  -9,  -26,  -34
1599702, 1710334831, "2024/3/13 13:0:31",  6,  -56,  1004,  0,  0,  0,  -10,  -25,  -34
1599902, 1710334831, "2024/3/13 13:0:31",  6,  -57,  1000,  0,  -1,  -1,  -11,  -27,  -34
1600102, 1710334832, "2024/3/13 13:0:32",  2,  -57,  1003,  0,  -1,  -1,  -12,  -26,  -32
1600302, 1710334832, "2024/3/13 13:0:32",  1,  -61,  1002,  0,  -1,  -1,  -8,  -26,  -34
1600502, 1710334832, "2024/3/13 13:0:32",  6,  -55,  1003,  0,  0,  -1,  -12,  -25,  -33
1600702, 1710334832, "2024/3/13 13:0:32",  2,  -60,  1004,  0,  0,  -1,  -11,  -25,  -32
1600902, 1710334832, "2024/3/13 13:0:32",  7,  -54,  1004,  0,  0,  -1,  -10,  -25,  -33
1601102, 1710334833, "2024/3/13 13:0:33",  5,  -59,  1003,  0,  0,  -1,  -11,  -27,  -34
1601302, 1710334833, "2024/3/13 13:0:33",  0,  -62,  1008,  0,  0,  -1,  -10,  -26,  -33
1601502, 1710334833, "2024/3/13 13:0:33",  4,  -63,  1006,  0,  0,  0,  -9,  -26,  -33
1601702, 1710334833, "2024/3/13 13:0:33",  8,  -52,  1004,  0,  -1,  -1,  -10,  -25,  -35
1601902, 1710334833, "2024/3/13 13:0:33",  8,  -59,  1005,  0,  -1,  -1,  -9,  -26,  -35
1602102, 1710334834, "2024/3/13 13:0:34",  9,  -56,  1002,  0,  0,  -1,  -10,  -26,  -32
1602302, 1710334834, "2024/3/13 13:0:34",  6,  -51,  1003,  0,  0,  0,  -10,  -27,  -35
1602502, 1710334834, "2024/3/13 13:0:34",  5,  -59,  1002,  0,  0,  -1,  -9,  -25,  -33
1602702, 1710334834, "2024/3/13 13:0:34",  1,  -64,  1005,  0,  0,  0,  -10,  -25,  -34
1602902, 1710334834, "2024/3/13 13:0:34",  9,  -64,  1003,  0,  0,  0,  -11,  -26,  -32
1603102, 1710334835, "2024/3/13 13:0:35",  7,  -60,  1005,  0,  0,  -1,  -10,  -27,  -33
1603302, 1710334835, "2024/3/13 13:0:35",  2,  -61,  1006,  0,  0,  0,  -12,  -26,  -34
1603502, 1710334835, "2024/3/13 13:0:35",  7,  -59,  1000,  0,  0,  -1,  -11,  -26,  -34
1603702, 1710334835, "2024/3/13 13:0:35",  9,  -64,  1003,  0,  0,  0,  -11,  -25,  -33
1603902, 1710334835, "2024/3/13 13:0:35",  5,  -67,  1000,  0,  0,  -1,  -10,  -25,  -33
1604102, 1710334836, "2024/3/13 13:0:36",  0,  -64,  1007,  0,  -1,  -1,  -11,  -27,  -33
1604302, 1710334836, "2024/3/13 13:0:36",  6,  -61,  998,  0,  0,  -1,  -11,  -26,  -32
1604502, 1710334836, "2024/3/13 13:0:36",  3,  -54,  1000,  0,  -1,  -1,  -11,  -26,  -32
1604702, 1710334836, "2024/3/13 13:0:36",  6,  -58,  1009,  0,  0,  0,  -11,  -25,  -33
1604902, 1710334836, "2024/3/13 13:0:36",  6,  -64,  1007,  0,  0,  -1,  -12,  -26,  -33
1605102, 1710334837, "2024/3/13 13:0:37",  7,  -59,  1002,  0,  0,  -1,  -11,  -26,  -31
1605302, 1710334837, "2024/3/13 13:0:37",  10,  -56,  1002,  0,  -1,  -1,  -10,  -24,  -32
1605502, 1710334837, "2024/3/13 13:0:37",  5,  -60,  1005,  0,  0,  -1,  -11,  -26,  -33
1605702, 1710334837, "2024/3/13 13:0:37",  5,  -59,  1003,  0,  0,  -1,  -11,  -26,  -33
1605902, 1710334837, "2024/3/13 13:0:37",  4,  -57,  1004,  0,  0,  -1,  -10,  -27,  -34
1606102, 1710334838, "2024/3/13 13:0:38",  4,  -59,  1000,  0,  0,  -1,  -10,  -27,  -32
1606302, 1710334838, "2024/3/13 13:0:38",  5,  -57,  1004,  0,  0,  -1,  -11,  -27,  -33
1606502, 1710334838, "2024/3/13 13:0:38",  4,  -52,  1004,  0,  0,  0,  -10,  -26,  -35
1606702, 1710334838, "2024/3/13 13:0:38",  7,  -59,  1003,  0,  0,  -1,  -10,  -25,  -34
1606902, 1710334838, "2024/3/13 13:0:38",  5,  -60,  1003,  0,  0,  -1,  -11,  -26,  -33
1607102, 1710334839, "2024/3/13 13:0:39",  2,  -58,  1001,  0,  -1,  -1,  -10,  -26,  -33
1607302, 1710334839, "2024/3/13 13:0:39",  3,  -57,  1007,  0,  0,  -1,  -10,  -26,  -34
1607502, 1710334839, "2024/3/13 13:0:39",  5,  -57,  1002,  0,  0,  -1,  -9,  -26,  -31
1607702, 1710334839, "2024/3/13 13:0:39",  2,  -61,  1002,  0,  0,  0,  -10,  -25,  -33
1607902, 1710334839, "2024/3/13 13:0:39",  5,  -62,  1007,  0,  0,  0,  -10,  -25,  -34
1608102, 1710334840, "2024/3/13 13:0:40",  6,  -54,  1000,  0,  0,  -1,  -11,  -26,  -32
1608302, 1710334840, "2024/3/13 13:0:40",  2,  -56,  1005,  0,  -1,  0,  -10,  -25,  -33
1608502, 1710334840, "2024/3/13 13:0:40",  4,  -58,  1005,  0,  0,  0,  -12,  -26,  -33
1608702, 1710334840, "2024/3/13 13:0:40",  7,  -57,  1006,  0,  0,  0,  -11,  -25,  -32
1608902, 1710334840, "2024/3/13 13:0:40",  0,  -64,  1008,  0,  0,  -1,  -10,  -25,  -34
1609102, 1710334841, "2024/3/13 13:0:41",  3,  -50,  1004,  0,  0,  -1,  -9,  -25,  -33
1609302, 1710334841, "2024/3/13 13:0:41",  5,  -58,  1006,  0,  0,  -1,  -9,  -25,  -33
1609502, 1710334841, "2024/3/13 13:0:41",  9,  -62,  1006,  0,  0,  -1,  -12,  -25,  -34
1609702, 1710334841, "2024/3/13 13:0:41",  2,  -57,  1007,  0,  0,  -1,  -11,  -26,  -32
1609902, 1710334841, "2024/3/13 13:0:41",  4,  -55,  1004,  0,  0,  -1,  -11,  -24,  -31
1610102, 1710334842, "2024/3/13 13:0:42",  8,  -55,  1003,  0,  0,  -1,  -10,  -25,  -33
1610302, 1710334842, "2024/3/13 13:0:42",  7,  -56,  1005,  0,  0,  0,  -9,  -27,  -33
1610502, 1710334842, "2024/3/13 13:0:42",  5,  -57,  1000,  0,  0,  0,  -11,  -27,  -32
1610702, 1710334842, "2024/3/13 13:0:42",  2,  -54,  999,  0,  0,  -1,  -8,  -25,  -33
1610902, 1710334842, "2024/3/13 13:0:42",  7,  -52,  1005,  0,  -1,  -1,  -10,  -27,  -31
1611102, 1710334843, "2024/3/13 13:0:43",  4,  -57,  1004,  0,  -1,  -1,  -9,  -25,  -32
1611302, 1710334843, "2024/3/13 13:0:43",  3,  -63,  1001,  0,  0,  -1,  -10,  -26,  -32
1611502, 1710334843, "2024/3/13 13:0:43",  1,  -49,  1002,  0,  0,  -1,  -11,  -25,  -34
1611702, 1710334843, "2024/3/13 13:0:43",  4,  -53,  1002,  0,  0,  0,  -10,  -27,  -34
1611902, 1710334843, "2024/3/13 13:0:43",  3,  -57,  1001,  0,  0,  -1,  -8,  -25,  -33
1612102, 1710334844, "2024/3/13 13:0:44",  9,  -60,  1004,  0,  0,  -1,  -10,  -25,  -33
1612302, 1710334844, "2024/3/13 13:0:44",  6,  -53,  1006,  0,  0,  -1,  -9,  -25,  -31
1612502, 1710334844, "2024/3/13 13:0:44",  2,  -53,  1004,  0,  0,  -1,  -9,  -25,  -33
1612702, 1710334844, "2024/3/13 13:0:44",  2,  -60,  1003,  0,  0,  -1,  -10,  -27,  -33
1612902, 1710334844, "2024/3/13 13:0:44",  9,  -61,  1006,  0,  0,  0,  -11,  -26,  -34
1613102, 1710334845, "2024/3/13 13:0:45",  4,  -60,  1002,  0,  0,  -1,  -9,  -27,  -34
1613302, 1710334845, "2024/3/13 13:0:45",  1,  -58,  1004,  0,  0,  -1,  -11,  -25,  -34
1613502, 1710334845, "2024/3/13 13:0:45",  1,  -57,  1002,  0,  0,  0,  -11,  -27,  -32
1613702, 1710334845, "2024/3/13 13:0:45",  5,  -59,  1005,  0,  -1,  -1,  -10,  -24,  -33
1613902, 1710334845, "2024/3/13 13:0:45",  4,  -60,  1004,  0,  0,  -1,  -8,  -24,  -33
1614102, 1710334846, "2024/3/13 13:0:46",  4,  -61,  1002,  0,  0,  -1,  -10,  -27,  -33
1614302, 1710334846, "2024/3/13 13:0:46",  0,  -63,  1003,  0,  -1,  -1,  -12,  -25,  -33
1614502, 1710334846, "2024/3/13 13:0:46",  8,  -56,  1003,  0,  0,  0,  -9,  -25,  -33
1614702, 1710334846, "2024/3/13 13:0:46",  8,  -65,  1003,  0,  0,  -1,  -11,  -26,  -33
1614902, 1710334846, "2024/3/13 13:0:46",  7,  -56,  1001,  0,  0,  -1,  -11,  -27,  -34
1615102, 1710334847, "2024/3/13 13:0:47",  5,  -58,  1003,  0,  -1,  -1,  -11,  -25,  -33
1615302, 1710334847, "2024/3/13 13:0:47",  7,  -58,  1003,  0,  0,  -1,  -9,  -26,  -33
1615502, 1710334847, "2024/3/13 13:0:47",  5,  -61,  1004,  0,  0,  0,  -10,  -26,  -32
1615702, 1710334847, "2024/3/13 13:0:47",  7,  -57,  1001,  0,  -1,  -1,  -12,  -25,  -31
1615902, 1710334847, "2024/3/13 13:0:47",  4,  -55,  998,  0,  0,  0,  -10,  -24,  -32
1616102, 1710334848, "2024/3/13 13:0:48",  3,  -57,  1004,  0,  0,  0,  -10,  -24,  -32
1616302, 1710334848, "2024/3/13 13:0:48",  5,  -54,  1002,  0,  0,  -1,  -10,  -27,  -35
1616502, 1710334848, "2024/3/13 13:0:48",  5,  -55,  1003,  0,  0,  -1,  -11,  -27,  -32
1616702, 1710334848, "2024/3/13 13:0:48",  5,  -58,  1004,  0,  0,  -1,  -11,  -25,  -34
1616902, 1710334848, "2024/3/13 13:0:48",  9,  -56,  1005,  0,  0,  0,  -11,  -27,  -34
1617102, 1710334849, "2024/3/13 13:0:49",  6,  -52,  1006,  0,  0,  -1,  -12,  -24,  -33
1617302, 1710334849, "2024/3/13 13:0:49",  7,  -60,  1002,  0,  0,  -1,  -10,  -24,  -31
1617502, 1710334849, "2024/3/13 13:0:49",  6,  -53,  1005,  0,  -1,  -1,  -10,  -26,  -32
1617702, 1710334849, "2024/3/13 13:0:49",  3,  -58,  1003,  0,  -1,  -1,  -10,  -26,  -33
1617902, 1710334849, "2024/3/13 13:0:49",  6,  -53,  1001,  0,  0,  -1,  -11,  -25,  -32
1618102, 1710334850, "2024/3/13 13:0:50",  7,  -58,  1002,  0,  0,  -1,  -10,  -25,  -34
1618302, 1710334850, "2024/3/13 13:0:50",  9,  -57,  1006,  0,  0,  -1,  -11,  -25,  -32
1618502, 1710334850, "2024/3/13 13:0:50",  5,  -57,  1004,  0,  0,  -1,  -9,  -26,  -33
1618702, 1710334850, "2024/3/13 13:0:50",  3,  -58,  1002,  0,  0,  -1,  -11,  -24,  -32
1618902, 1710334850, "2024/3/13 13:0:50",  7,  -56,  1001,  0,  0,  0,  -11,  -26,  -32
1619102, 1710334851, "2024/3/13 13:0:51",  9,  -55,  1002,  0,  0,  0,  -12,  -25,  -32
1619302, 1710334851, "2024/3/13 13:0:51",  4,  -58,  1005,  0,  0,  -1,  -10,  -26,  -34
1619502, 1710334851, "2024/3/13 13:0:51",  4,  -51,  1000,  0,  0,  -1,  -11,  -25,  -32
1619702, 1710334851, "2024/3/13 13:0:51",  4,  -53,  999,  0,  -1,  -1,  -12,  -28,  -32
1619902, 1710334851, "2024/3/13 13:0:51",  9,  -55,  999,  0,  0,  0,  -11,  -26,  -32
1620102, 1710334852, "2024/3/13 13:0:52",  5,  -61,  1002,  0,  0,  0,  -10,  -25,  -32
1620302, 1710334852, "2024/3/13 13:0:52",  6,  -53,  1001,  0,  0,  -1,  -9,  -26,  -32
1620502, 1710334852, "2024/3/13 13:0:52",  5,  -54,  1003,  0,  0,  -1,  -10,  -24,  -34
1620702, 1710334852, "2024/3/13 13:0:52",  4,  -51,  998,  0,  0,  -1,  -10,  -27,  -32
1620902, 1710334852, "2024/3/13 13:0:52",  5,  -61,  1005,  0,  0,  0,  -10,  -26,  -31
1621102, 1710334853, "2024/3/13 13:0:53",  4,  -57,  1001,  0,  0,  -1,  -10,  -27,  -32
1621302, 1710334853, "2024/3/13 13:0:53",  1,  -56,  1003,  0,  0,  0,  -9,  -25,  -32
1621502, 1710334853, "2024/3/13 13:0:53",  6,  -57,  1004,  0,  0,  -1,  -11,  -25,  -33
1621702, 1710334853, "2024/3/13 13:0:53",  3,  -59,  1002,  0,  -1,  -1,  -10,  -27,  -33
1621902, 1710334853, "2024/3/13 13:0:53",  0,  -57,  1007,  0,  0,  -1,  -10,  -27,  -31
1622102, 1710334854, "2024/3/13 13:0:54",  9,  -58,  1004,  0,  0,  -1,  -12,  -25,  -32
1622302, 1710334854, "2024/3/13 13:0:54",  1,  -54,  1002,  0,  0,  -1,  -11,  -27,  -33
1622502, 1710334854, "2024/3/13 13:0:54",  4,  -55,  1004,  0,  0,  -1,  -9,  -25,  -32
1622702, 1710334854, "2024/3/13 13:0:54",  7,  -57,  1007,  0,  0,  0,  -10,  -26,  -32
1622902, 1710334854, "2024/3/13 13:0:54",  0,  -56,  1006,  0,  0,  -1,  -8,  -25,  -33
1623102, 1710334855, "2024/3/13 13:0:55",  4,  -54,  1005,  0,  0,  0,  -10,  -25,  -32
1623302, 1710334855, "2024/3/13 13:0:55",  5,  -59,  1005,  0,  0,  -1,  -10,  -26,  -33
1623502, 1710334855, "2024/3/13 13:0:55",  6,  -54,  1001,  0,  0,  -1,  -10,  -25,  -32
1623702, 1710334855, "2024/3/13 13:0:55",  10,  -61,  1003,  0,  0,  -1,  -11,  -24,  -33
1623902, 1710334855, "2024/3/13 13:0:55",  7,  -63,  1006,  0,  0,  0,  -11,  -26,  -33
1624102, 1710334856, "2024/3/13 13:0:56",  11,  -49,  1002,  0,  -1,  -1,  -10,  -25,  -35
1624302, 1710334856, "2024/3/13 13:0:56",  5,  -61,  1005,  0,  0,  -1,  -11,  -26,  -34
1624502, 1710334856, "2024/3/13 13:0:56",  6,  -62,  1007,  0,  0,  0,  -11,  -27,  -31
1624702, 1710334856, "2024/3/13 13:0:56",  1,  -56,  1006,  0,  0,  0,  -10,  -24,  -33
1624902, 1710334856, "2024/3/13 13:0:56",  6,  -54,  1000,  0,  0,  -1,  -11,  -26,  -33
1625102, 1710334857, "2024/3/13 13:0:57",  4,  -54,  1005,  0,  0,  -1,  -10,  -25,  -33
1625302, 1710334857, "2024/3/13 13:0:57",  0,  -60,  1005,  0,  0,  0,  -11,  -27,  -33
1625502, 1710334857, "2024/3/13 13:0:57",  3,  -58,  1005,  0,  -1,  -1,  -12,  -25,  -31
1625702, 1710334857, "2024/3/13 13:0:57",  11,  -61,  1005,  0,  -1,  0,  -9,  -24,  -34
1625902, 1710334857, "2024/3/13 13:0:57",  4,  -56,  1004,  0,  0,  -1,  -11,  -27,  -33
1626102, 1710334858, "2024/3/13 13:0:58",  8,  -60,  1004,  0,  0,  -1,  -10,  -27,  -33
1626302, 1710334858, "2024/3/13 13:0:58",  5,  -64,  1004,  0,  0,  -1,  -11,  -27,  -33
1626502, 1710334858, "2024/3/13 13:0:58",  6,  -58,  1006,  0,  0,  0,  -11,  -26,  -34
1626702, 1710334858, "2024/3/13 13:0:58",  7,  -52,  1002,  0,  0,  -1,  -9,  -26,  -31
1626902, 1710334858, "2024/3/13 13:0:58",  6,  -57,  1005,  0,  0,  -1,  -10,  -26,  -32
1627102, 1710334859, "2024/3/13 13:0:59",  6,  -53,  1004,  0,  0,  -1,  -10,  -25,  -31
1627302, 1710334859, "2024/3/13 13:0:59",  0,  -58,  1002,  0,  -1,  0,  -9,  -26,  -34
1627502, 1710334859, "2024/3/13 13:0:59",  0,  -62,  1003,  0,  0,  0,  -11,  -25,  -30
1627702, 1710334859, "2024/3/13 13:0:59",  5,  -62,  1004,  0,  0,  0,  -10,  -26,  -34
1627902, 1710334859, "2024/3/13 13:0:59",  0,  -62,  1005,  0,  0,  0,  -11,  -25,  -33
1628102, 1710334860, "2024/3/13 13:1:0",  6,  -50,  1005,  0,  0,  0,  -10,  -26,  -33
1628302, 1710334860, "2024/3/13 13:1:0",  3,  -58,  1003,  0,  0,  -1,  -9,  -25,  -33
1628502, 1710334860, "2024/3/13 13:1:0",  7,  -56,  1001,  0,  -1,  -1,  -11,  -26,  -32
1628702, 1710334860, "2024/3/13 13:1:0",  6,  -55,  1005,  0,  -1,  -1,  -11,  -25,  -31
1628902, 1710334860, "2024/3/13 13:1:0",  1,  -57,  1004,  0,  0,  -1,  -11,  -24,  -33
1629102, 1710334861, "2024/3/13 13:1:1",  6,  -54,  1003,  0,  0,  -1,  -9,  -25,  -34
1629302, 1710334861, "2024/3/13 13:1:1",  3,  -59,  1005,  0,  0,  0,  -10,  -26,  -33
1629502, 1710334861, "2024/3/13 13:1:1",  5,  -59,  1005,  0,  0,  -1,  -10,  -26,  -33
1629702, 1710334861, "2024/3/13 13:1:1",  8,  -62,  1004,  0,  0,  -1,  -9,  -25,  -32
1629902, 1710334861, "2024/3/13 13:1:1",  3,  -56,  999,  0,  0,  -1,  -10,  -26,  -33
1630102, 1710334862, "2024/3/13 13:1:2",  3,  -56,  1003,  0,  0,  -1,  -8,  -26,  -33
1630302, 1710334862, "2024/3/13 13:1:2",  6,  -61,  1003,  0,  0,  -1,  -10,  -25,  -33
1630502, 1710334862, "2024/3/13 13:1:2",  3,  -62,  1005,  0,  0,  -1,  -10,  -25,  -34
1630702, 1710334862, "2024/3/13 13:1:2",  3,  -57,  1001,  0,  0,  0,  -9,  -26,  -32
1630902, 1710334862, "2024/3/13 13:1:2",  5,  -63,  1002,  0,  0,  -1,  -10,  -26,  -32
1631102, 1710334863, "2024/3/13 13:1:3",  8,  -56,  1001,  0,  0,  -1,  -10,  -25,  -33
1631302, 1710334863, "2024/3/13 13:1:3",  1,  -56,  1004,  0,  0,  0,  -11,  -26,  -33
1631502, 1710334863, "2024/3/13 13:1:3",  0,  -57,  1003,  0,  0,  0,  -11,  -25,  -33
1631702, 1710334863, "2024/3/13 13:1:3",  2,  -59,  1003,  0,  0,  -1,  -9,  -23,  -33
1631902, 1710334863, "2024/3/13 13:1:3",  8,  -59,  1003,  0,  -1,  -1,  -10,  -25,  -32
1632102, 1710334864, "2024/3/13 13:1:4",  7,  -58,  1005,  0,  -1,  -1,  -11,  -24,  -33
1632302, 1710334864, "2024/3/13 13:1:4",  3,  -58,  1003,  0,  -1,  -1,  -10,  -25,  -34
1632502, 1710334864, "2024/3/13 13:1:4",  6,  -58,  1002,  0,  0,  -1,  -11,  -25,  -32
1632702, 1710334864, "2024/3/13 13:1:4",  2,  -59,  1003,  0,  0,  -1,  -9,  -24,  -32
1632902, 1710334864, "2024/3/13 13:1:4",  8,  -57,  1001,  0,  0,  0,  -10,  -27,  -33
1633102, 1710334865, "2024/3/13 13:1:5",  4,  -62,  1003,  0,  0,  0,  -11,  -26,  -33
1633302, 1710334865, "2024/3/13 13:1:5",  6,  -60,  1005,  0,  0,  -1,  -10,  -26,  -32
1633502, 1710334865, "2024/3/13 13:1:5",  2,  -64,  1003,  0,  0,  -1,  -9,  -26,  -34
1633702, 1710334865, "2024/3/13 13:1:5",  5,  -56,  1002,  0,  0,  -1,  -10,  -27,  -32
1633902, 1710334865, "2024/3/13 13:1:5",  2,  -58,  1001,  0,  -1,  0,  -9,  -26,  -33
1634102, 1710334866, "2024/3/13 13:1:6",  5,  -59,  1004,  0,  0,  -1,  -10,  -26,  -32
1634302, 1710334866, "2024/3/13 13:1:6",  4,  -57,  1004,  0,  0,  -1,  -10,  -25,  -34
1634502, 1710334866, "2024/3/13 13:1:6",  5,  -54,  1005,  0,  0,  0,  -10,  -25,  -33
1634702, 1710334866, "2024/3/13 13:1:6",  3,  -55,  1006,  0,  0,  -1,  -11,  -26,  -33
1634902, 1710334866, "2024/3/13 13:1:6",  5,  -57,  1002,  0,  0,  -1,  -10,  -27,  -34
1635102, 1710334867, "2024/3/13 13:1:7",  6,  -59,  1003,  0,  0,  0,  -11,  -25,  -34
1635302, 1710334867, "2024/3/13 13:1:7",  4,  -56,  1004,  0,  0,  -1,  -10,  -26,  -33
1635502, 1710334867, "2024/3/13 13:1:7",  5,  -56,  1005,  0,  0,  -1,  -11,  -25,  -34
1635702, 1710334867, "2024/3/13 13:1:7",  8,  -58,  1006,  0,  0,  -1,  -11,  -24,  -32
1635902, 1710334867, "2024/3/13 13:1:7",  2,  -63,  1005,  0,  0,  0,  -12,  -25,  -32
1636102, 1710334868, "2024/3/13 13:1:8",  2,  -59,  1005,  0,  0,  -1,  -10,  -25,  -33
1636302, 1710334868, "2024/3/13 13:1:8",  3,  -59,  1004,  0,  0,  -1,  -10,  -27,  -33
1636502, 1710334868, "2024/3/13 13:1:8",  6,  -64,  1004,  0,  0,  -1,  -10,  -25,  -33
1636702, 1710334868, "2024/3/13 13:1:8",  5,  -65,  1005,  0,  0,  -1,  -10,  -26,  -32
1636902, 1710334868, "2024/3/13 13:1:8",  1,  -65,  1004,  0,  0,  -1,  -11,  -25,  -33
1637102, 1710334869, "2024/3/13 13:1:9",  8,  -59,  1002,  0,  0,  -1,  -9,  -27,  -34
1637302, 1710334869, "2024/3/13 13:1:9",  2,  -56,  1004,  0,  0,  0,  -9,  -25,  -32
1637502, 1710334869, "2024/3/13 13:1:9",  8,  -56,  1000,  0,  0,  0,  -10,  -27,  -33
1637702, 1710334869, "2024/3/13 13:1:9",  3,  -64,  997,  0,  -1,  -1,  -11,  -25,  -32
1637902, 1710334869, "2024/3/13 13:1:9",  3,  -55,  1006,  0,  0,  -1,  -10,  -26,  -33
1638102, 1710334870, "2024/3/13 13:1:10",  5,  -56,  1001,  0,  0,  -1,  -9,  -25,  -31
1638302, 1710334870, "2024/3/13 13:1:10",  9,  -58,  1003,  0,  0,  -1,  -9,  -25,  -32
1638502, 1710334870, "2024/3/13 13:1:10",  6,  -57,  1006,  0,  0,  0,  -10,  -25,  -33
1638702, 1710334870, "2024/3/13 13:1:10",  9,  -55,  1000,  0,  0,  0,  -11,  -26,  -33
1638902, 1710334870, "2024/3/13 13:1:10",  6,  -58,  1000,  0,  0,  0,  -11,  -25,  -34
1639102, 1710334871, "2024/3/13 13:1:11",  7,  -58,  1003,  0,  0,  0,  -9,  -26,  -32
1639302, 1710334871, "2024/3/13 13:1:11",  3,  -59,  1002,  0,  0,  -1,  -9,  -25,  -33
1639502, 1710334871, "2024/3/13 13:1:11",  3,  -56,  1003,  0,  0,  -1,  -11,  -26,  -33
1639702, 1710334871, "2024/3/13 13:1:11",  5,  -56,  1005,  0,  0,  -1,  -9,  -24,  -33
1639902, 1710334871, "2024/3/13 13:1:11",  5,  -57,  1003,  0,  0,  0,  -11,  -26,  -34
1640102, 1710334872, "2024/3/13 13:1:12",  7,  -63,  1002,  0,  0,  -1,  -10,  -27,  -33
1640302, 1710334872, "2024/3/13 13:1:12",  7,  -54,  1004,  0,  -1,  -1,  -10,  -26,  -33
1640502, 1710334872, "2024/3/13 13:1:12",  3,  -62,  1003,  0,  0,  0,  -10,  -25,  -33
1640702, 1710334872, "2024/3/13 13:1:12",  5,  -56,  1005,  0,  -1,  -1,  -11,  -25,  -34
1640902, 1710334872, "2024/3/13 13:1:12",  8,  -60,  1002,  0,  0,  -1,  -11,  -25,  -31
1641102, 1710334873, "2024/3/13 13:1:13",  3,  -57,  1003,  0,  0,  0,  -12,  -24,  -32
1641302, 1710334873, "2024/3/13 13:1:13",  7,  -63,  1005,  0,  0,  0,  -10,  -27,  -32
1641502, 1710334873, "2024/3/13 13:1:13",  1,  -61,  1002,  0,  0,  0,  -10,  -27,  -32
1641702, 1710334873, "2024/3/13 13:1:13",  4,  -56,  995,  0,  0,  -1,  -11,  -26,  -32
1641902, 1710334873, "2024/3/13 13:1:13",  3,  -57,  1003,  0,  0,  -1,  -10,  -25,  -35
1642102, 1710334874, "2024/3/13 13:1:14",  3,  -57,  1006,  0,  0,  0,  -10,  -26,  -34
1642302, 1710334874, "2024/3/13 13:1:14",  3,  -59,  1003,  0,  0,  -1,  -9,  -24,  -34
1642502, 1710334874, "2024/3/13 13:1:14",  3,  -54,  1004,  0,  0,  0,  -12,  -26,  -33
1642702, 1710334874, "2024/3/13 13:1:14",  6,  -65,  998,  0,  0,  -1,  -11,  -25,  -34
1642902, 1710334874, "2024/3/13 13:1:14",  0,  -58,  1000,  0,  0,  -1,  -12,  -26,  -33
1643102, 1710334875, "2024/3/13 13:1:15",  9,  -56,  1009,  0,  -1,  -1,  -11,  -25,  -34
1643302, 1710334875, "2024/3/13 13:1:15",  1,  -58,  1007,  0,  0,  -1,  -12,  -26,  -34
1643502, 1710334875, "2024/3/13 13:1:15",  -3,  -53,  1002,  0,  0,  0,  -12,  -25,  -35
1643702, 1710334875, "2024/3/13 13:1:15",  4,  -60,  1004,  0,  0,  0,  -10,  -26,  -36
1643902, 1710334875, "2024/3/13 13:1:15",  2,  -64,  1004,  0,  0,  -1,  -11,  -25,  -36
1644102, 1710334876, "2024/3/13 13:1:16",  5,  -55,  1002,  0,  0,  0,  -11,  -27,  -37
1644302, 1710334876, "2024/3/13 13:1:16",  2,  -53,  1003,  0,  0,  0,  -12,  -25,  -36
1644502, 1710334876, "2024/3/13 13:1:16",  9,  -58,  1006,  0,  -1,  0,  -11,  -25,  -37
1644702, 1710334876, "2024/3/13 13:1:16",  3,  -59,  1003,  0,  0,  -1,  -9,  -27,  -37
1644902, 1710334876, "2024/3/13 13:1:16",  5,  -59,  1005,  0,  0,  0,  -11,  -27,  -35
1645102, 1710334877, "2024/3/13 13:1:17",  5,  -52,  1005,  0,  -1,  -1,  -12,  -27,  -36
1645302, 1710334877, "2024/3/13 13:1:17",  5,  -56,  1005,  0,  0,  0,  -12,  -26,  -36
1645502, 1710334877, "2024/3/13 13:1:17",  -1,  -54,  1004,  0,  0,  0,  -12,  -26,  -37
1645702, 1710334877, "2024/3/13 13:1:17",  -1,  -59,  1004,  0,  0,  -1,  -11,  -24,  -36
1645902, 1710334877, "2024/3/13 13:1:17",  7,  -58,  1004,  0,  0,  -1,  -11,  -28,  -36
1646102, 1710334878, "2024/3/13 13:1:18",  5,  -58,  1003,  0,  0,  -1,  -11,  -26,  -35
1646302, 1710334878, "2024/3/13 13:1:18",  4,  -58,  1004,  0,  0,  -1,  -12,  -25,  -36
1646502, 1710334878, "2024/3/13 13:1:18",  3,  -64,  1005,  0,  0,  -1,  -12,  -26,  -36
1646702, 1710334878, "2024/3/13 13:1:18",  2,  -57,  1003,  0,  0,  -1,  -12,  -27,  -36
1646902, 1710334878, "2024/3/13 13:1:18",  5,  -62,  1006,  0,  0,  0,  -12,  -26,  -35
1647102, 1710334879, "2024/3/13 13:1:19",  4,  -52,  1005,  0,  -1,  -1,  -11,  -27,  -36
1647302, 1710334879, "2024/3/13 13:1:19",  1,  -54,  1002,  0,  0,  0,  -10,  -27,  -36
1647502, 1710334879, "2024/3/13 13:1:19",  5,  -54,  1005,  0,  0,  -1,  -11,  -27,  -36
1647702, 1710334879, "2024/3/13 13:1:19",  5,  -57,  1004,  0,  0,  -1,  -10,  -26,  -36
1647902, 1710334879, "2024/3/13 13:1:19",  9,  -56,  1002,  0,  -1,  0,  -10,  -26,  -36
1648102, 1710334880, "2024/3/13 13:1:20",  3,  -54,  1004,  0,  0,  -1,  -10,  -26,  -36
1648302, 1710334880, "2024/3/13 13:1:20",  8,  -55,  1000,  0,  0,  -1,  -11,  -25,  -36
1648502, 1710334880, "2024/3/13 13:1:20",  5,  -59,  1001,  0,  0,  -1,  -11,  -27,  -36
1648702, 1710334880, "2024/3/13 13:1:20",  5,  -59,  1000,  0,  0,  -1,  -9,  -26,  -35
1648902, 1710334880, "2024/3/13 13:1:20",  4,  -57,  1004,  0,  0,  -1,  -11,  -27,  -35
1649102, 1710334881, "2024/3/13 13:1:21",  3,  -58,  1003,  0,  0,  0,  -10,  -28,  -35
1649302, 1710334881, "2024/3/13 13:1:21",  7,  -59,  1005,  0,  0,  0,  -10,  -25,  -34
1649502, 1710334881, "2024/3/13 13:1:21",  7,  -61,  1000,  0,  -1,  -1,  -9,  -25,  -33
1649702, 1710334881, "2024/3/13 13:1:21",  4,  -61,  1006,  0,  0,  -1,  -10,  -24,  -33
1649902, 1710334881, "2024/3/13 13:1:21",  4,  -54,  1000,  0,  0,  0,  -9,  -26,  -35
1650102, 1710334882, "2024/3/13 13:1:22",  2,  -56,  1001,  0,  0,  -1,  -9,  -26,  -33
1650302, 1710334882, "2024/3/13 13:1:22",  5,  -61,  1000,  0,  0,  -1,  -9,  -26,  -32
1650502, 1710334882, "2024/3/13 13:1:22",  2,  -58,  1002,  0,  0,  0,  -9,  -26,  -33
1650702, 1710334882, "2024/3/13 13:1:22",  3,  -60,  1007,  0,  0,  0,  -9,  -26,  -33
1650902, 1710334882, "2024/3/13 13:1:22",  3,  -52,  1006,  0,  0,  -1,  -9,  -25,  -33
1651102, 1710334883, "2024/3/13 13:1:23",  4,  -56,  1000,  0,  0,  -1,  -9,  -26,  -35
1651302, 1710334883, "2024/3/13 13:1:23",  3,  -54,  1002,  0,  0,  -1,  -11,  -25,  -31
1651502, 1710334883, "2024/3/13 13:1:23",  2,  -58,  1002,  0,  0,  -1,  -10,  -25,  -34
1651702, 1710334883, "2024/3/13 13:1:23",  3,  -64,  1001,  0,  0,  -1,  -10,  -26,  -34
1651902, 1710334883, "2024/3/13 13:1:23",  5,  -58,  1008,  0,  0,  0,  -9,  -26,  -35
1652102, 1710334884, "2024/3/13 13:1:24",  8,  -59,  1001,  0,  0,  0,  -10,  -26,  -34
1652302, 1710334884, "2024/3/13 13:1:24",  3,  -66,  1000,  0,  0,  0,  -10,  -25,  -34
1652502, 1710334884, "2024/3/13 13:1:24",  0,  -61,  1008,  0,  0,  -1,  -10,  -27,  -34
1652702, 1710334884, "2024/3/13 13:1:24",  20,  -53,  1014,  0,  0,  -1,  -9,  -24,  -33
1652902, 1710334884, "2024/3/13 13:1:24",  3,  -52,  1002,  0,  0,  -1,  -11,  -28,  -34
1653102, 1710334885, "2024/3/13 13:1:25",  4,  -55,  1002,  0,  0,  0,  -8,  -26,  -34
1653302, 1710334885, "2024/3/13 13:1:25",  6,  -53,  1003,  0,  0,  0,  -10,  -26,  -33
1653502, 1710334885, "2024/3/13 13:1:25",  2,  -60,  1006,  0,  -1,  -1,  -10,  -26,  -33
1653702, 1710334885, "2024/3/13 13:1:25",  5,  -60,  1000,  0,  -1,  -1,  -9,  -25,  -34
1653902, 1710334885, "2024/3/13 13:1:25",  9,  -61,  1005,  0,  0,  -1,  -8,  -26,  -34
1654102, 1710334886, "2024/3/13 13:1:26",  0,  -60,  1000,  0,  0,  -1,  -10,  -26,  -34
1654302, 1710334886, "2024/3/13 13:1:26",  17,  -56,  1009,  0,  0,  -1,  -10,  -26,  -34
1654502, 1710334886, "2024/3/13 13:1:26",  8,  -56,  1005,  0,  -1,  0,  -10,  -25,  -33
1654702, 1710334886, "2024/3/13 13:1:26",  4,  -58,  1002,  0,  0,  0,  -10,  -25,  -33
1654902, 1710334886, "2024/3/13 13:1:26",  0,  -60,  1000,  0,  0,  -1,  -9,  -26,  -34
1655102, 1710334887, "2024/3/13 13:1:27",  8,  -57,  1004,  0,  0,  -1,  -11,  -26,  -34
1655302, 1710334887, "2024/3/13 13:1:27",  8,  -56,  1005,  0,  0,  -1,  -11,  -28,  -34
1655502, 1710334887, "2024/3/13 13:1:27",  1,  -62,  1002,  0,  0,  -1,  -10,  -26,  -36
1655702, 1710334887, "2024/3/13 13:1:27",  3,  -59,  1006,  0,  0,  -1,  -11,  -26,  -35
1655902, 1710334887, "2024/3/13 13:1:27",  7,  -57,  1003,  0,  0,  -1,  -11,  -26,  -36
1656102, 1710334888, "2024/3/13 13:1:28",  3,  -56,  1005,  0,  0,  -1,  -11,  -26,  -36
1656302, 1710334888, "2024/3/13 13:1:28",  9,  -58,  1005,  0,  -1,  -1,  -11,  -26,  -34
1656502, 1710334888, "2024/3/13 13:1:28",  2,  -58,  1002,  0,  0,  0,  -10,  -25,  -35
1656702, 1710334888, "2024/3/13 13:1:28",  3,  -55,  1002,  0,  -1,  -1,  -10,  -25,  -36
1656902, 1710334888, "2024/3/13 13:1:28",  11,  -58,  1003,  0,  0,  0,  -11,  -26,  -36
1657102, 1710334889, "2024/3/13 13:1:29",  6,  -54,  1004,  0,  0,  -1,  -10,  -26,  -36
1657302, 1710334889, "2024/3/13 13:1:29",  2,  -59,  1002,  0,  0,  -1,  -11,  -26,  -36
1657502, 1710334889, "2024/3/13 13:1:29",  4,  -60,  1003,  0,  0,  -1,  -11,  -27,  -37
1657702, 1710334889, "2024/3/13 13:1:29",  4,  -57,  1003,  0,  0,  0,  -10,  -25,  -36
1657902, 1710334889, "2024/3/13 13:1:29",  7,  -59,  1005,  0,  0,  0,  -11,  -28,  -37
1658102, 1710334890, "2024/3/13 13:1:30",  3,  -55,  1004,  0,  -1,  0,  -11,  -26,  -36
1658302, 1710334890, "2024/3/13 13:1:30",  6,  -56,  1002,  0,  0,  0,  -10,  -26,  -36
1658502, 1710334890, "2024/3/13 13:1:30",  9,  -51,  1003,  0,  0,  -1,  -11,  -25,  -35
1658702, 1710334890, "2024/3/13 13:1:30",  2,  -57,  1003,  0,  -1,  -1,  -11,  -25,  -37
1658902, 1710334890, "2024/3/13 13:1:30",  6,  -57,  1006,  0,  0,  0,  -9,  -26,  -36
1659102, 1710334891, "2024/3/13 13:1:31",  6,  -52,  1005,  0,  -1,  -1,  -11,  -27,  -36
1659302, 1710334891, "2024/3/13 13:1:31",  6,  -52,  1000,  0,  0,  -1,  -12,  -25,  -35
1659502, 1710334891, "2024/3/13 13:1:31",  6,  -58,  1002,  0,  0,  0,  -10,  -28,  -34
1659702, 1710334891, "2024/3/13 13:1:31",  4,  -57,  1000,  0,  0,  0,  -11,  -25,  -37
1659902, 1710334891, "2024/3/13 13:1:31",  5,  -55,  1005,  0,  0,  -1,  -11,  -25,  -36
1660102, 1710334892, "2024/3/13 13:1:32",  3,  -62,  998,  0,  -1,  -1,  -11,  -26,  -35
