millis,stamp,datetime,accX,accY,accZ,gyroX,gyroY,gyroZ,compX,compY,compZ
188838, 1710332860, "2024/3/13 12:27:40",  3,  -56,  998,  0,  0,  0,  -12,  -24,  -35
189038, 1710332860, "2024/3/13 12:27:40",  1,  -56,  996,  0,  0,  0,  -10,  -24,  -37
189238, 1710332860, "2024/3/13 12:27:40",  0,  -48,  995,  0,  0,  0,  -10,  -24,  -36
189438, 1710332861, "2024/3/13 12:27:41",  4,  -61,  998,  0,  -1,  0,  -11,  -25,  -37
189638, 1710332861, "2024/3/13 12:27:41",  5,  -62,  996,  0,  0,  0,  -11,  -25,  -37
189838, 1710332861, "2024/3/13 12:27:41",  7,  -58,  1000,  0,  -1,  -1,  -11,  -26,  -37
190038, 1710332861, "2024/3/13 12:27:41",  1,  -58,  1000,  0,  0,  -1,  -12,  -25,  -36
190238, 1710332861, "2024/3/13 12:27:41",  2,  -57,  998,  0,  0,  0,  -11,  -25,  -35
190438, 1710332862, "2024/3/13 12:27:42",  0,  -62,  999,  0,  0,  0,  -11,  -25,  -35
190638, 1710332862, "2024/3/13 12:27:42",  4,  -59,  1001,  0,  0,  0,  -12,  -25,  -36
190838, 1710332862, "2024/3/13 12:27:42",  7,  -55,  999,  0,  0,  0,  -11,  -25,  -37
191038, 1710332862, "2024/3/13 12:27:42",  2,  -58,  1000,  0,  0,  0,  -10,  -26,  -36
191238, 1710332862, "2024/3/13 12:27:42",  6,  -56,  998,  0,  0,  0,  -11,  -25,  -37
191438, 1710332863, "2024/3/13 12:27:43",  1,  -59,  999,  0,  0,  0,  -11,  -24,  -36
191638, 1710332863, "2024/3/13 12:27:43",  4,  -53,  997,  0,  0,  0,  -12,  -25,  -34
191838, 1710332863, "2024/3/13 12:27:43",  2,  -57,  1000,  0,  0,  0,  -12,  -25,  -36
192038, 1710332863, "2024/3/13 12:27:43",  7,  -61,  1000,  0,  0,  -1,  -11,  -26,  -36
192238, 1710332863, "2024/3/13 12:27:43",  5,  -61,  1000,  0,  0,  0,  -10,  -25,  -37
192438, 1710332864, "2024/3/13 12:27:44",  2,  -58,  995,  0,  0,  0,  -13,  -25,  -36
192638, 1710332864, "2024/3/13 12:27:44",  5,  -56,  1000,  0,  0,  0,  -11,  -26,  -37
192838, 1710332864, "2024/3/13 12:27:44",  3,  -55,  1001,  0,  0,  0,  -10,  -25,  -36
193038, 1710332864, "2024/3/13 12:27:44",  6,  -60,  996,  0,  0,  0,  -13,  -25,  -35
193238, 1710332864, "2024/3/13 12:27:44",  0,  -58,  1000,  0,  0,  0,  -11,  -26,  -35
193438, 1710332865, "2024/3/13 12:27:45",  3,  -54,  1001,  0,  0,  0,  -12,  -24,  -35
193638, 1710332865, "2024/3/13 12:27:45",  4,  -57,  997,  0,  0,  0,  -10,  -25,  -36
193838, 1710332865, "2024/3/13 12:27:45",  3,  -59,  996,  0,  0,  0,  -11,  -25,  -36
194038, 1710332865, "2024/3/13 12:27:45",  7,  -58,  1000,  0,  0,  -1,  -10,  -25,  -35
194238, 1710332865, "2024/3/13 12:27:45",  5,  -55,  998,  0,  0,  0,  -11,  -26,  -37
194438, 1710332866, "2024/3/13 12:27:46",  -1,  -55,  998,  0,  0,  0,  -11,  -26,  -38
194638, 1710332866, "2024/3/13 12:27:46",  4,  -55,  997,  0,  -1,  0,  -10,  -27,  -36
194838, 1710332866, "2024/3/13 12:27:46",  4,  -63,  998,  0,  -1,  0,  -11,  -25,  -36
195038, 1710332866, "2024/3/13 12:27:46",  5,  -59,  997,  0,  0,  -1,  -10,  -25,  -36
195238, 1710332866, "2024/3/13 12:27:46",  3,  -60,  996,  0,  0,  0,  -11,  -25,  -37
195438, 1710332867, "2024/3/13 12:27:47",  5,  -59,  995,  0,  0,  -1,  -11,  -25,  -37
195638, 1710332867, "2024/3/13 12:27:47",  5,  -61,  1000,  0,  0,  -1,  -11,  -25,  -36
195838, 1710332867, "2024/3/13 12:27:47",  2,  -62,  996,  0,  0,  0,  -11,  -23,  -36
196038, 1710332867, "2024/3/13 12:27:47",  2,  -62,  999,  0,  0,  0,  -9,  -25,  -37
196238, 1710332867, "2024/3/13 12:27:47",  0,  -60,  1001,  0,  0,  0,  -11,  -25,  -36
196438, 1710332868, "2024/3/13 12:27:48",  -1,  -63,  999,  0,  -1,  -1,  -10,  -24,  -36
196638, 1710332868, "2024/3/13 12:27:48",  3,  -59,  998,  0,  0,  -1,  -10,  -24,  -36
196838, 1710332868, "2024/3/13 12:27:48",  7,  -60,  1000,  0,  0,  0,  -10,  -25,  -36
197038, 1710332868, "2024/3/13 12:27:48",  0,  -66,  998,  0,  0,  0,  -11,  -26,  -36
197238, 1710332868, "2024/3/13 12:27:48",  2,  -57,  1000,  0,  0,  0,  -11,  -26,  -37
197438, 1710332869, "2024/3/13 12:27:49",  5,  -55,  1000,  0,  0,  0,  -11,  -25,  -35
197638, 1710332869, "2024/3/13 12:27:49",  4,  -56,  999,  0,  0,  -1,  -11,  -26,  -36
197838, 1710332869, "2024/3/13 12:27:49",  6,  -57,  996,  0,  -1,  0,  -11,  -26,  -36
198038, 1710332869, "2024/3/13 12:27:49",  3,  -61,  997,  0,  0,  0,  -11,  -27,  -37
198238, 1710332869, "2024/3/13 12:27:49",  7,  -65,  996,  0,  0,  0,  -12,  -26,  -36
198438, 1710332870, "2024/3/13 12:27:50",  1,  -56,  998,  0,  0,  -1,  -11,  -26,  -37
198638, 1710332870, "2024/3/13 12:27:50",  0,  -61,  1002,  0,  0,  0,  -11,  -25,  -36
198838, 1710332870, "2024/3/13 12:27:50",  2,  -64,  998,  0,  0,  0,  -10,  -25,  -37
199038, 1710332870, "2024/3/13 12:27:50",  7,  -57,  996,  0,  0,  0,  -13,  -25,  -37
199238, 1710332870, "2024/3/13 12:27:50",  7,  -54,  998,  0,  0,  -1,  -11,  -26,  -39
199438, 1710332871, "2024/3/13 12:27:51",  6,  -61,  999,  0,  0,  -1,  -11,  -25,  -36
199638, 1710332871, "2024/3/13 12:27:51",  4,  -57,  996,  0,  0,  0,  -11,  -24,  -36
199838, 1710332871, "2024/3/13 12:27:51",  2,  -59,  999,  0,  0,  0,  -12,  -26,  -37
200038, 1710332871, "2024/3/13 12:27:51",  5,  -60,  999,  0,  0,  -1,  -12,  -24,  -37
200238, 1710332871, "2024/3/13 12:27:51",  2,  -54,  1000,  0,  0,  0,  -13,  -26,  -37
200438, 1710332872, "2024/3/13 12:27:52",  5,  -55,  998,  0,  0,  -1,  -12,  -26,  -36
200638, 1710332872, "2024/3/13 12:27:52",  -1,  -61,  997,  0,  0,  0,  -12,  -27,  -36
200838, 1710332872, "2024/3/13 12:27:52",  1,  -65,  994,  0,  0,  0,  -12,  -26,  -36
201038, 1710332872, "2024/3/13 12:27:52",  4,  -55,  998,  0,  0,  0,  -9,  -26,  -36
201238, 1710332872, "2024/3/13 12:27:52",  2,  -55,  1000,  0,  0,  0,  -12,  -24,  -36
201438, 1710332873, "2024/3/13 12:27:53",  1,  -55,  998,  0,  0,  0,  -11,  -25,  -36
201638, 1710332873, "2024/3/13 12:27:53",  4,  -55,  998,  0,  0,  -1,  -11,  -25,  -35
201838, 1710332873, "2024/3/13 12:27:53",  -1,  -60,  999,  0,  0,  0,  -13,  -25,  -36
202038, 1710332873, "2024/3/13 12:27:53",  6,  -56,  1000,  0,  0,  -1,  -11,  -25,  -38
202238, 1710332873, "2024/3/13 12:27:53",  5,  -57,  994,  0,  0,  0,  -12,  -25,  -37
202438, 1710332874, "2024/3/13 12:27:54",  1,  -58,  1000,  0,  0,  0,  -11,  -26,  -36
202638, 1710332874, "2024/3/13 12:27:54",  8,  -62,  1000,  0,  0,  0,  -12,  -27,  -37
202838, 1710332874, "2024/3/13 12:27:54",  -1,  -61,  995,  0,  0,  0,  -12,  -25,  -37
203038, 1710332874, "2024/3/13 12:27:54",  0,  -55,  996,  0,  0,  0,  -10,  -25,  -35
203238, 1710332874, "2024/3/13 12:27:54",  4,  -66,  1002,  0,  0,  0,  -13,  -26,  -37
203438, 1710332875, "2024/3/13 12:27:55",  3,  -60,  1000,  0,  0,  0,  -10,  -25,  -36
203638, 1710332875, "2024/3/13 12:27:55",  1,  -55,  998,  0,  0,  0,  -10,  -26,  -37
203838, 1710332875, "2024/3/13 12:27:55",  6,  -58,  1002,  0,  0,  -1,  -10,  -25,  -36
204038, 1710332875, "2024/3/13 12:27:55",  2,  -60,  994,  0,  -1,  -1,  -13,  -25,  -36
204238, 1710332875, "2024/3/13 12:27:55",  6,  -57,  998,  0,  0,  0,  -10,  -25,  -36
204438, 1710332876, "2024/3/13 12:27:56",  6,  -55,  999,  0,  0,  0,  -12,  -26,  -36
204638, 1710332876, "2024/3/13 12:27:56",  5,  -56,  1003,  0,  0,  0,  -11,  -25,  -36
204838, 1710332876, "2024/3/13 12:27:56",  1,  -57,  1000,  0,  -1,  -1,  -11,  -26,  -36
205038, 1710332876, "2024/3/13 12:27:56",  0,  -55,  1001,  0,  0,  0,  -11,  -24,  -35
205238, 1710332876, "2024/3/13 12:27:56",  1,  -61,  1000,  0,  0,  -1,  -12,  -24,  -37
205438, 1710332877, "2024/3/13 12:27:57",  0,  -57,  1000,  0,  0,  0,  -11,  -27,  -36
205638, 1710332877, "2024/3/13 12:27:57",  2,  -59,  999,  0,  0,  -1,  -10,  -26,  -36
205838, 1710332877, "2024/3/13 12:27:57",  2,  -57,  998,  0,  0,  0,  -12,  -26,  -35
206038, 1710332877, "2024/3/13 12:27:57",  3,  -55,  997,  0,  0,  0,  -11,  -25,  -36
206238, 1710332877, "2024/3/13 12:27:57",  1,  -63,  1003,  0,  0,  0,  -12,  -27,  -36
206438, 1710332878, "2024/3/13 12:27:58",  4,  -64,  1003,  0,  0,  0,  -12,  -25,  -37
206638, 1710332878, "2024/3/13 12:27:58",  3,  -54,  1001,  0,  0,  0,  -12,  -24,  -35
206838, 1710332878, "2024/3/13 12:27:58",  7,  -63,  997,  0,  0,  -1,  -11,  -26,  -36
207038, 1710332878, "2024/3/13 12:27:58",  11,  -60,  998,  0,  0,  -1,  -10,  -25,  -36
207238, 1710332878, "2024/3/13 12:27:58",  7,  -62,  996,  0,  0,  0,  -11,  -24,  -36
207438, 1710332879, "2024/3/13 12:27:59",  5,  -57,  997,  0,  0,  0,  -12,  -24,  -36
207638, 1710332879, "2024/3/13 12:27:59",  3,  -55,  1001,  0,  0,  0,  -11,  -25,  -36
207838, 1710332879, "2024/3/13 12:27:59",  -5,  -59,  989,  0,  0,  -1,  -12,  -27,  -36
208038, 1710332879, "2024/3/13 12:27:59",  0,  -59,  1001,  0,  0,  -1,  -12,  -24,  -36
208238, 1710332879, "2024/3/13 12:27:59",  2,  -58,  1000,  0,  0,  -1,  -11,  -26,  -36
208438, 1710332880, "2024/3/13 12:28:0",  0,  -63,  997,  0,  0,  -1,  -11,  -25,  -37
208638, 1710332880, "2024/3/13 12:28:0",  1,  -63,  998,  0,  0,  0,  -11,  -24,  -35
208838, 1710332880, "2024/3/13 12:28:0",  1,  -58,  1001,  0,  0,  0,  -11,  -24,  -38
209038, 1710332880, "2024/3/13 12:28:0",  0,  -53,  994,  0,  -1,  0,  -12,  -26,  -36
209238, 1710332880, "2024/3/13 12:28:0",  8,  -63,  997,  0,  -1,  0,  -13,  -24,  -37
209438, 1710332881, "2024/3/13 12:28:1",  10,  -65,  1001,  0,  0,  0,  -12,  -25,  -36
209638, 1710332881, "2024/3/13 12:28:1",  2,  -65,  993,  0,  0,  -1,  -9,  -24,  -36
209838, 1710332881, "2024/3/13 12:28:1",  1,  -64,  997,  0,  0,  -1,  -11,  -25,  -36
210038, 1710332881, "2024/3/13 12:28:1",  1,  -62,  998,  0,  0,  0,  -10,  -25,  -38
210238, 1710332881, "2024/3/13 12:28:1",  0,  -55,  1000,  0,  0,  0,  -11,  -26,  -37
210438, 1710332882, "2024/3/13 12:28:2",  1,  -56,  999,  0,  0,  0,  -11,  -25,  -35
210638, 1710332882, "2024/3/13 12:28:2",  7,  -59,  998,  0,  -1,  -1,  -12,  -25,  -36
210838, 1710332882, "2024/3/13 12:28:2",  2,  -62,  997,  0,  0,  -1,  -11,  -24,  -36
211038, 1710332882, "2024/3/13 12:28:2",  5,  -60,  998,  0,  0,  -1,  -11,  -24,  -37
211238, 1710332882, "2024/3/13 12:28:2",  4,  -55,  997,  0,  0,  0,  -12,  -25,  -37
211438, 1710332883, "2024/3/13 12:28:3",  3,  -56,  996,  0,  -1,  0,  -12,  -26,  -36
211638, 1710332883, "2024/3/13 12:28:3",  7,  -58,  998,  0,  0,  0,  -11,  -25,  -36
211838, 1710332883, "2024/3/13 12:28:3",  3,  -58,  1000,  0,  0,  0,  -11,  -24,  -36
212038, 1710332883, "2024/3/13 12:28:3",  3,  -62,  997,  0,  0,  -1,  -12,  -26,  -37
212238, 1710332883, "2024/3/13 12:28:3",  2,  -58,  999,  0,  0,  0,  -12,  -25,  -37
212438, 1710332884, "2024/3/13 12:28:4",  1,  -58,  1001,  0,  0,  0,  -9,  -24,  -36
212638, 1710332884, "2024/3/13 12:28:4",  2,  -64,  1000,  0,  0,  0,  -11,  -24,  -36
212838, 1710332884, "2024/3/13 12:28:4",  1,  -61,  999,  0,  0,  0,  -10,  -24,  -36
213038, 1710332884, "2024/3/13 12:28:4",  3,  -54,  998,  0,  0,  0,  -10,  -25,  -36
213238, 1710332884, "2024/3/13 12:28:4",  1,  -55,  1000,  0,  0,  0,  -11,  -25,  -37
213438, 1710332885, "2024/3/13 12:28:5",  4,  -60,  999,  0,  0,  -1,  -11,  -25,  -36
213638, 1710332885, "2024/3/13 12:28:5",  4,  -56,  998,  0,  0,  0,  -10,  -25,  -36
213838, 1710332885, "2024/3/13 12:28:5",  0,  -61,  1000,  0,  0,  0,  -12,  -25,  -36
214038, 1710332885, "2024/3/13 12:28:5",  3,  -53,  998,  0,  0,  0,  -11,  -27,  -36
214238, 1710332885, "2024/3/13 12:28:5",  7,  -53,  998,  0,  0,  0,  -11,  -26,  -36
214438, 1710332886, "2024/3/13 12:28:6",  4,  -59,  998,  0,  0,  -1,  -10,  -25,  -36
214638, 1710332886, "2024/3/13 12:28:6",  4,  -65,  999,  0,  -1,  -1,  -10,  -24,  -38
214838, 1710332886, "2024/3/13 12:28:6",  1,  -60,  1002,  0,  0,  0,  -11,  -25,  -36
215038, 1710332886, "2024/3/13 12:28:6",  6,  -61,  997,  0,  -1,  0,  -12,  -26,  -37
215238, 1710332886, "2024/3/13 12:28:6",  2,  -57,  996,  0,  0,  -1,  -11,  -24,  -36
215438, 1710332887, "2024/3/13 12:28:7",  3,  -56,  998,  0,  0,  0,  -11,  -24,  -37
215638, 1710332887, "2024/3/13 12:28:7",  2,  -59,  1000,  0,  0,  0,  -11,  -26,  -36
215838, 1710332887, "2024/3/13 12:28:7",  2,  -54,  1001,  0,  0,  -1,  -10,  -25,  -36
216038, 1710332887, "2024/3/13 12:28:7",  2,  -64,  997,  0,  0,  -1,  -12,  -26,  -36
216238, 1710332887, "2024/3/13 12:28:7",  7,  -57,  1000,  0,  0,  0,  -14,  -25,  -36
216438, 1710332888, "2024/3/13 12:28:8",  0,  -53,  1001,  0,  0,  0,  -11,  -25,  -36
216638, 1710332888, "2024/3/13 12:28:8",  4,  -59,  996,  0,  -1,  -1,  -9,  -26,  -36
216838, 1710332888, "2024/3/13 12:28:8",  1,  -59,  1000,  0,  0,  -1,  -11,  -27,  -36
217038, 1710332888, "2024/3/13 12:28:8",  5,  -57,  998,  0,  -1,  0,  -12,  -26,  -35
217238, 1710332888, "2024/3/13 12:28:8",  9,  -57,  998,  0,  0,  -1,  -12,  -27,  -37
217438, 1710332889, "2024/3/13 12:28:9",  8,  -50,  999,  0,  0,  -1,  -13,  -27,  -36
217638, 1710332889, "2024/3/13 12:28:9",  4,  -56,  1000,  0,  0,  -1,  -9,  -25,  -36
217838, 1710332889, "2024/3/13 12:28:9",  3,  -63,  1000,  0,  0,  0,  -12,  -26,  -35
218038, 1710332889, "2024/3/13 12:28:9",  1,  -58,  998,  0,  0,  0,  -12,  -25,  -36
218238, 1710332889, "2024/3/13 12:28:9",  7,  -58,  1001,  0,  0,  0,  -11,  -25,  -36
218438, 1710332890, "2024/3/13 12:28:10",  6,  -58,  997,  0,  -1,  -1,  -11,  -26,  -35
218638, 1710332890, "2024/3/13 12:28:10",  3,  -58,  1001,  0,  0,  -1,  -11,  -26,  -37
218838, 1710332890, "2024/3/13 12:28:10",  7,  -58,  997,  0,  0,  0,  -11,  -25,  -36
219038, 1710332890, "2024/3/13 12:28:10",  8,  -58,  999,  0,  0,  0,  -11,  -25,  -36
219238, 1710332890, "2024/3/13 12:28:10",  2,  -60,  1000,  0,  0,  0,  -11,  -25,  -35
219438, 1710332891, "2024/3/13 12:28:11",  6,  -56,  999,  0,  0,  -1,  -10,  -26,  -37
219638, 1710332891, "2024/3/13 12:28:11",  6,  -56,  1000,  0,  0,  0,  -11,  -24,  -36
219838, 1710332891, "2024/3/13 12:28:11",  6,  -56,  999,  0,  0,  0,  -13,  -23,  -37
220038, 1710332891, "2024/3/13 12:28:11",  4,  -61,  1000,  0,  0,  0,  -10,  -25,  -37
220238, 1710332891, "2024/3/13 12:28:11",  4,  -59,  1000,  0,  0,  0,  -12,  -25,  -36
220438, 1710332892, "2024/3/13 12:28:12",  3,  -53,  1002,  0,  0,  0,  -9,  -26,  -38
220638, 1710332892, "2024/3/13 12:28:12",  1,  -60,  1000,  0,  0,  0,  -11,  -24,  -36
220838, 1710332892, "2024/3/13 12:28:12",  6,  -55,  1001,  0,  0,  0,  -11,  -26,  -36
221038, 1710332892, "2024/3/13 12:28:12",  4,  -58,  998,  0,  0,  -1,  -12,  -25,  -37
221238, 1710332892, "2024/3/13 12:28:12",  2,  -55,  996,  0,  0,  0,  -12,  -25,  -35
221438, 1710332893, "2024/3/13 12:28:13",  3,  -58,  1002,  0,  -1,  0,  -12,  -25,  -36
221638, 1710332893, "2024/3/13 12:28:13",  4,  -59,  1000,  0,  0,  0,  -12,  -26,  -36
221838, 1710332893, "2024/3/13 12:28:13",  2,  -57,  999,  0,  0,  0,  -10,  -25,  -36
222038, 1710332893, "2024/3/13 12:28:13",  6,  -60,  1001,  0,  -1,  -1,  -12,  -26,  -35
222238, 1710332893, "2024/3/13 12:28:13",  1,  -55,  999,  0,  0,  0,  -12,  -25,  -36
222438, 1710332894, "2024/3/13 12:28:14",  3,  -58,  1000,  0,  0,  -1,  -11,  -25,  -37
222638, 1710332894, "2024/3/13 12:28:14",  2,  -58,  1001,  0,  0,  -1,  -11,  -26,  -36
222838, 1710332894, "2024/3/13 12:28:14",  3,  -55,  1000,  0,  0,  -1,  -12,  -25,  -37
223038, 1710332894, "2024/3/13 12:28:14",  6,  -61,  1001,  0,  0,  -1,  -13,  -25,  -36
223238, 1710332894, "2024/3/13 12:28:14",  2,  -58,  998,  0,  0,  0,  -12,  -25,  -36
223438, 1710332895, "2024/3/13 12:28:15",  5,  -54,  999,  0,  0,  0,  -11,  -25,  -36
223638, 1710332895, "2024/3/13 12:28:15",  7,  -55,  1000,  0,  0,  0,  -12,  -25,  -36
223838, 1710332895, "2024/3/13 12:28:15",  7,  -57,  999,  0,  0,  0,  -9,  -25,  -36
224038, 1710332895, "2024/3/13 12:28:15",  7,  -61,  999,  0,  0,  0,  -13,  -25,  -36
224238, 1710332895, "2024/3/13 12:28:15",  6,  -58,  997,  0,  0,  -1,  -11,  -25,  -35
224438, 1710332896, "2024/3/13 12:28:16",  6,  -56,  999,  0,  0,  0,  -12,  -26,  -36
224638, 1710332896, "2024/3/13 12:28:16",  5,  -62,  1001,  0,  0,  0,  -11,  -25,  -36
224838, 1710332896, "2024/3/13 12:28:16",  -2,  -58,  1001,  0,  0,  0,  -12,  -24,  -36
225038, 1710332896, "2024/3/13 12:28:16",  4,  -61,  999,  0,  0,  0,  -10,  -25,  -37
225238, 1710332896, "2024/3/13 12:28:16",  5,  -51,  998,  0,  0,  0,  -10,  -24,  -37
225438, 1710332897, "2024/3/13 12:28:17",  5,  -61,  1002,  0,  0,  -1,  -13,  -25,  -36
225638, 1710332897, "2024/3/13 12:28:17",  2,  -49,  1001,  0,  0,  -1,  -12,  -25,  -36
225838, 1710332897, "2024/3/13 12:28:17",  2,  -63,  1001,  0,  0,  0,  -11,  -24,  -36
226038, 1710332897, "2024/3/13 12:28:17",  4,  -63,  1002,  0,  0,  0,  -12,  -25,  -36
226238, 1710332897, "2024/3/13 12:28:17",  1,  -61,  999,  0,  -1,  0,  -12,  -25,  -37
226438, 1710332898, "2024/3/13 12:28:18",  3,  -59,  997,  0,  0,  0,  -11,  -24,  -36
226638, 1710332898, "2024/3/13 12:28:18",  4,  -56,  999,  0,  0,  0,  -10,  -24,  -36
226838, 1710332898, "2024/3/13 12:28:18",  2,  -53,  998,  0,  0,  0,  -11,  -25,  -33
227038, 1710332898, "2024/3/13 12:28:18",  -2,  -64,  998,  0,  0,  0,  -10,  -25,  -36
227238, 1710332898, "2024/3/13 12:28:18",  1,  -54,  1002,  0,  0,  0,  -12,  -24,  -36
227438, 1710332899, "2024/3/13 12:28:19",  2,  -54,  1000,  0,  0,  -1,  -11,  -24,  -35
227638, 1710332899, "2024/3/13 12:28:19",  0,  -58,  1000,  0,  0,  0,  -11,  -25,  -36
227838, 1710332899, "2024/3/13 12:28:19",  3,  -59,  1003,  0,  0,  0,  -11,  -26,  -34
228038, 1710332899, "2024/3/13 12:28:19",  0,  -55,  1000,  0,  0,  -1,  -10,  -27,  -34
228238, 1710332899, "2024/3/13 12:28:19",  1,  -54,  999,  0,  0,  -1,  -11,  -24,  -35
228438, 1710332900, "2024/3/13 12:28:20",  6,  -59,  999,  0,  0,  0,  -11,  -24,  -36
228638, 1710332900, "2024/3/13 12:28:20",  0,  -58,  1001,  0,  0,  -1,  -12,  -27,  -36
228838, 1710332900, "2024/3/13 12:28:20",  0,  -57,  998,  0,  0,  0,  -12,  -27,  -35
229038, 1710332900, "2024/3/13 12:28:20",  2,  -60,  1000,  0,  0,  0,  -12,  -25,  -35
229238, 1710332900, "2024/3/13 12:28:20",  5,  -56,  998,  0,  0,  -1,  -10,  -24,  -35
229438, 1710332901, "2024/3/13 12:28:21",  3,  -56,  1000,  0,  -1,  -1,  -11,  -24,  -34
229638, 1710332901, "2024/3/13 12:28:21",  6,  -59,  997,  0,  0,  0,  -11,  -25,  -35
229838, 1710332901, "2024/3/13 12:28:21",  4,  -57,  1000,  0,  0,  0,  -11,  -25,  -34
230038, 1710332901, "2024/3/13 12:28:21",  2,  -56,  999,  0,  0,  0,  -10,  -25,  -36
230238, 1710332901, "2024/3/13 12:28:21",  1,  -56,  998,  0,  0,  0,  -11,  -26,  -35
230438, 1710332902, "2024/3/13 12:28:22",  2,  -56,  995,  0,  0,  0,  -11,  -24,  -35
230638, 1710332902, "2024/3/13 12:28:22",  3,  -60,  998,  0,  0,  -1,  -12,  -27,  -36
230838, 1710332902, "2024/3/13 12:28:22",  5,  -56,  996,  0,  0,  0,  -11,  -25,  -36
231038, 1710332902, "2024/3/13 12:28:22",  3,  -60,  997,  0,  0,  0,  -11,  -25,  -36
231238, 1710332902, "2024/3/13 12:28:22",  5,  -53,  998,  0,  0,  -1,  -11,  -25,  -35
231438, 1710332903, "2024/3/13 12:28:23",  3,  -57,  1001,  0,  0,  0,  -11,  -24,  -35
231638, 1710332903, "2024/3/13 12:28:23",  6,  -56,  999,  0,  -1,  0,  -11,  -25,  -35
231838, 1710332903, "2024/3/13 12:28:23",  4,  -58,  998,  0,  0,  0,  -11,  -24,  -35
232038, 1710332903, "2024/3/13 12:28:23",  4,  -53,  998,  0,  0,  0,  -10,  -24,  -34
232238, 1710332903, "2024/3/13 12:28:23",  1,  -54,  997,  0,  0,  0,  -9,  -27,  -34
232438, 1710332904, "2024/3/13 12:28:24",  5,  -58,  998,  0,  0,  -1,  -11,  -27,  -36
232638, 1710332904, "2024/3/13 12:28:24",  4,  -53,  997,  0,  -1,  0,  -12,  -26,  -35
232838, 1710332904, "2024/3/13 12:28:24",  3,  -53,  999,  0,  0,  0,  -10,  -25,  -35
233038, 1710332904, "2024/3/13 12:28:24",  3,  -53,  998,  0,  -1,  0,  -10,  -26,  -35
233238, 1710332904, "2024/3/13 12:28:24",  0,  -55,  999,  0,  0,  0,  -11,  -24,  -36
233438, 1710332905, "2024/3/13 12:28:25",  2,  -61,  999,  0,  0,  -1,  -13,  -25,  -33
233638, 1710332905, "2024/3/13 12:28:25",  4,  -57,  1000,  0,  0,  -1,  -11,  -26,  -35
233838, 1710332905, "2024/3/13 12:28:25",  1,  -61,  1000,  0,  0,  -1,  -11,  -25,  -36
234038, 1710332905, "2024/3/13 12:28:25",  3,  -56,  997,  0,  0,  0,  -10,  -26,  -36
234238, 1710332905, "2024/3/13 12:28:25",  1,  -61,  1000,  0,  0,  -1,  -12,  -25,  -34
234438, 1710332906, "2024/3/13 12:28:26",  5,  -57,  999,  0,  0,  -1,  -12,  -25,  -34
234638, 1710332906, "2024/3/13 12:28:26",  7,  -57,  1000,  0,  0,  0,  -11,  -25,  -36
234838, 1710332906, "2024/3/13 12:28:26",  2,  -58,  998,  0,  0,  0,  -12,  -25,  -36
235038, 1710332906, "2024/3/13 12:28:26",  3,  -59,  998,  0,  0,  -1,  -10,  -26,  -36
235238, 1710332906, "2024/3/13 12:28:26",  0,  -58,  999,  0,  0,  0,  -10,  -26,  -33
235438, 1710332907, "2024/3/13 12:28:27",  5,  -63,  1001,  0,  0,  0,  -11,  -25,  -33
235638, 1710332907, "2024/3/13 12:28:27",  4,  -60,  1000,  0,  0,  0,  -10,  -26,  -36
235838, 1710332907, "2024/3/13 12:28:27",  3,  -60,  1000,  0,  0,  0,  -12,  -25,  -33
236038, 1710332907, "2024/3/13 12:28:27",  9,  -56,  1002,  0,  -1,  0,  -10,  -25,  -36
236238, 1710332907, "2024/3/13 12:28:27",  3,  -56,  1000,  0,  0,  0,  -11,  -26,  -36
236438, 1710332908, "2024/3/13 12:28:28",  6,  -54,  998,  0,  0,  0,  -11,  -27,  -35
236638, 1710332908, "2024/3/13 12:28:28",  5,  -59,  998,  0,  0,  0,  -11,  -25,  -34
236838, 1710332908, "2024/3/13 12:28:28",  1,  -65,  997,  0,  -1,  0,  -12,  -26,  -36
237038, 1710332908, "2024/3/13 12:28:28",  1,  -61,  999,  0,  0,  0,  -11,  -25,  -36
237238, 1710332908, "2024/3/13 12:28:28",  2,  -56,  1000,  0,  0,  -1,  -11,  -25,  -36
237438, 1710332909, "2024/3/13 12:28:29",  7,  -60,  1004,  0,  0,  0,  -11,  -26,  -35
237638, 1710332909, "2024/3/13 12:28:29",  1,  -61,  999,  0,  0,  0,  -10,  -25,  -35
237838, 1710332909, "2024/3/13 12:28:29",  1,  -54,  1000,  0,  -1,  -1,  -10,  -26,  -36
238038, 1710332909, "2024/3/13 12:28:29",  3,  -61,  999,  0,  0,  0,  -11,  -25,  -34
238238, 1710332909, "2024/3/13 12:28:29",  2,  -58,  1000,  0,  -1,  -1,  -10,  -25,  -33
238438, 1710332910, "2024/3/13 12:28:30",  0,  -57,  998,  0,  0,  0,  -11,  -26,  -37
238638, 1710332910, "2024/3/13 12:28:30",  2,  -55,  1001,  0,  0,  0,  -12,  -25,  -35
238838, 1710332910, "2024/3/13 12:28:30",  5,  -55,  999,  0,  0,  -1,  -10,  -26,  -35
239038, 1710332910, "2024/3/13 12:28:30",  1,  -53,  1000,  0,  0,  0,  -11,  -25,  -34
239238, 1710332910, "2024/3/13 12:28:30",  4,  -53,  1001,  0,  0,  0,  -11,  -25,  -36
239438, 1710332911, "2024/3/13 12:28:31",  7,  -58,  996,  0,  0,  0,  -12,  -25,  -36
239638, 1710332911, "2024/3/13 12:28:31",  1,  -61,  1000,  0,  0,  0,  -10,  -25,  -36
239838, 1710332911, "2024/3/13 12:28:31",  2,  -57,  1003,  0,  -1,  -1,  -10,  -24,  -36
240038, 1710332911, "2024/3/13 12:28:31",  -1,  -63,  1000,  0,  0,  0,  -12,  -26,  -34
240238, 1710332911, "2024/3/13 12:28:31",  1,  -63,  997,  0,  0,  -1,  -12,  -25,  -34
240438, 1710332912, "2024/3/13 12:28:32",  8,  -59,  997,  0,  0,  0,  -11,  -24,  -35
240638, 1710332912, "2024/3/13 12:28:32",  1,  -55,  1000,  0,  -1,  -1,  -11,  -25,  -34
240838, 1710332912, "2024/3/13 12:28:32",  1,  -54,  1002,  0,  0,  -1,  -11,  -24,  -36
241038, 1710332912, "2024/3/13 12:28:32",  4,  -56,  998,  0,  0,  0,  -10,  -25,  -36
241238, 1710332912, "2024/3/13 12:28:32",  0,  -58,  999,  0,  0,  0,  -12,  -26,  -35
241438, 1710332913, "2024/3/13 12:28:33",  3,  -64,  1000,  0,  0,  0,  -10,  -26,  -35
241638, 1710332913, "2024/3/13 12:28:33",  6,  -59,  998,  0,  0,  -1,  -11,  -26,  -34
241838, 1710332913, "2024/3/13 12:28:33",  1,  -58,  998,  0,  0,  -1,  -11,  -25,  -33
242038, 1710332913, "2024/3/13 12:28:33",  3,  -58,  996,  0,  -1,  -1,  -12,  -27,  -35
242238, 1710332913, "2024/3/13 12:28:33",  8,  -56,  999,  0,  -1,  0,  -12,  -25,  -36
242438, 1710332914, "2024/3/13 12:28:34",  0,  -59,  998,  0,  0,  -1,  -11,  -25,  -34
242638, 1710332914, "2024/3/13 12:28:34",  2,  -55,  1000,  0,  0,  0,  -10,  -26,  -35
242838, 1710332914, "2024/3/13 12:28:34",  1,  -56,  998,  0,  0,  0,  -11,  -26,  -35
243038, 1710332914, "2024/3/13 12:28:34",  2,  -58,  998,  0,  0,  0,  -12,  -25,  -36
243238, 1710332914, "2024/3/13 12:28:34",  1,  -60,  999,  0,  0,  0,  -9,  -25,  -35
243438, 1710332915, "2024/3/13 12:28:35",  1,  -57,  1000,  0,  0,  0,  -11,  -25,  -35
243638, 1710332915, "2024/3/13 12:28:35",  5,  -57,  995,  0,  0,  0,  -12,  -24,  -33
243838, 1710332915, "2024/3/13 12:28:35",  3,  -51,  999,  0,  0,  0,  -11,  -25,  -35
244038, 1710332915, "2024/3/13 12:28:35",  2,  -60,  1000,  0,  0,  0,  -10,  -25,  -33
244238, 1710332915, "2024/3/13 12:28:35",  3,  -58,  1000,  0,  -1,  0,  -11,  -26,  -36
244438, 1710332916, "2024/3/13 12:28:36",  0,  -55,  997,  0,  0,  -1,  -11,  -25,  -36
244638, 1710332916, "2024/3/13 12:28:36",  -2,  -56,  1000,  0,  0,  0,  -11,  -26,  -35
244838, 1710332916, "2024/3/13 12:28:36",  4,  -57,  1000,  0,  0,  -1,  -10,  -25,  -33
245038, 1710332916, "2024/3/13 12:28:36",  6,  -61,  999,  0,  0,  -1,  -12,  -26,  -36
245238, 1710332916, "2024/3/13 12:28:36",  5,  -62,  998,  0,  -1,  -1,  -10,  -24,  -34
245438, 1710332917, "2024/3/13 12:28:37",  8,  -55,  1000,  0,  0,  0,  -11,  -26,  -35
245638, 1710332917, "2024/3/13 12:28:37",  4,  -61,  1000,  0,  0,  0,  -10,  -24,  -35
245838, 1710332917, "2024/3/13 12:28:37",  4,  -57,  999,  0,  0,  0,  -10,  -25,  -34
246038, 1710332917, "2024/3/13 12:28:37",  7,  -60,  998,  0,  -1,  -1,  -11,  -24,  -37
246238, 1710332917, "2024/3/13 12:28:37",  3,  -57,  997,  0,  0,  -1,  -11,  -25,  -34
246438, 1710332918, "2024/3/13 12:28:38",  1,  -59,  998,  0,  0,  0,  -12,  -25,  -35
246638, 1710332918, "2024/3/13 12:28:38",  2,  -55,  993,  0,  0,  0,  -11,  -25,  -35
246838, 1710332918, "2024/3/13 12:28:38",  2,  -59,  1000,  0,  0,  0,  -10,  -25,  -36
247038, 1710332918, "2024/3/13 12:28:38",  6,  -61,  1000,  0,  0,  -1,  -9,  -24,  -34
247238, 1710332918, "2024/3/13 12:28:38",  -1,  -57,  998,  0,  -1,  0,  -11,  -25,  -36
247438, 1710332919, "2024/3/13 12:28:39",  5,  -59,  999,  0,  -1,  -1,  -11,  -26,  -34
247638, 1710332919, "2024/3/13 12:28:39",  1,  -59,  998,  0,  0,  0,  -11,  -25,  -34
247838, 1710332919, "2024/3/13 12:28:39",  3,  -54,  1000,  0,  0,  0,  -11,  -26,  -35
248038, 1710332919, "2024/3/13 12:28:39",  0,  -59,  998,  0,  -1,  0,  -12,  -25,  -34
248238, 1710332919, "2024/3/13 12:28:39",  1,  -59,  1001,  0,  0,  0,  -11,  -24,  -35
248438, 1710332920, "2024/3/13 12:28:40",  3,  -58,  1000,  0,  0,  0,  -11,  -25,  -36
248638, 1710332920, "2024/3/13 12:28:40",  0,  -55,  1000,  0,  0,  -1,  -12,  -26,  -34
248838, 1710332920, "2024/3/13 12:28:40",  6,  -53,  1000,  0,  0,  -1,  -11,  -24,  -35
249038, 1710332920, "2024/3/13 12:28:40",  3,  -60,  997,  0,  0,  0,  -9,  -26,  -36
249238, 1710332920, "2024/3/13 12:28:40",  0,  -58,  1002,  0,  0,  0,  -11,  -26,  -35
249438, 1710332921, "2024/3/13 12:28:41",  5,  -60,  1002,  0,  0,  -1,  -12,  -26,  -35
249638, 1710332921, "2024/3/13 12:28:41",  6,  -57,  1001,  0,  0,  -1,  -11,  -25,  -36
249838, 1710332921, "2024/3/13 12:28:41",  7,  -55,  997,  0,  0,  -1,  -12,  -25,  -34
250038, 1710332921, "2024/3/13 12:28:41",  0,  -60,  1001,  0,  0,  0,  -11,  -26,  -33
250238, 1710332921, "2024/3/13 12:28:41",  2,  -60,  1000,  0,  -1,  -1,  -10,  -27,  -36
250438, 1710332922, "2024/3/13 12:28:42",  3,  -58,  1001,  0,  0,  0,  -12,  -25,  -35
250638, 1710332922, "2024/3/13 12:28:42",  2,  -56,  999,  0,  0,  0,  -11,  -25,  -35
250838, 1710332922, "2024/3/13 12:28:42",  2,  -59,  1000,  0,  0,  0,  -11,  -26,  -35
251038, 1710332922, "2024/3/13 12:28:42",  4,  -60,  1000,  0,  0,  0,  -10,  -26,  -34
251238, 1710332922, "2024/3/13 12:28:42",  2,  -63,  997,  0,  0,  -1,  -11,  -25,  -36
251438, 1710332923, "2024/3/13 12:28:43",  3,  -58,  999,  0,  0,  0,  -10,  -25,  -36
251638, 1710332923, "2024/3/13 12:28:43",  6,  -57,  999,  0,  0,  -1,  -12,  -24,  -36
251838, 1710332923, "2024/3/13 12:28:43",  3,  -59,  1001,  0,  0,  0,  -11,  -28,  -36
252038, 1710332923, "2024/3/13 12:28:43",  2,  -54,  998,  0,  0,  0,  -11,  -25,  -34
252238, 1710332923, "2024/3/13 12:28:43",  3,  -63,  1001,  0,  0,  0,  -10,  -27,  -34
252438, 1710332924, "2024/3/13 12:28:44",  0,  -55,  999,  0,  0,  0,  -10,  -26,  -33
252638, 1710332924, "2024/3/13 12:28:44",  8,  -54,  999,  0,  0,  -1,  -10,  -25,  -35
252838, 1710332924, "2024/3/13 12:28:44",  4,  -60,  1001,  0,  0,  -1,  -11,  -25,  -35
253038, 1710332924, "2024/3/13 12:28:44",  8,  -58,  996,  0,  0,  0,  -12,  -25,  -35
253238, 1710332924, "2024/3/13 12:28:44",  6,  -60,  996,  0,  0,  0,  -11,  -26,  -36
253438, 1710332925, "2024/3/13 12:28:45",  2,  -56,  1000,  0,  0,  0,  -12,  -26,  -36
253638, 1710332925, "2024/3/13 12:28:45",  6,  -63,  998,  0,  0,  0,  -11,  -23,  -34
253838, 1710332925, "2024/3/13 12:28:45",  3,  -53,  999,  0,  -1,  -1,  -11,  -25,  -35
254038, 1710332925, "2024/3/13 12:28:45",  4,  -60,  1001,  0,  0,  0,  -11,  -25,  -33
254238, 1710332925, "2024/3/13 12:28:45",  4,  -54,  999,  0,  0,  0,  -11,  -26,  -35
254438, 1710332926, "2024/3/13 12:28:46",  1,  -60,  1000,  0,  -1,  -1,  -12,  -24,  -35
254638, 1710332926, "2024/3/13 12:28:46",  4,  -57,  999,  0,  0,  0,  -10,  -25,  -33
254838, 1710332926, "2024/3/13 12:28:46",  3,  -57,  1002,  0,  0,  -1,  -10,  -28,  -35
255038, 1710332926, "2024/3/13 12:28:46",  6,  -55,  1000,  0,  0,  0,  -12,  -24,  -34
255238, 1710332926, "2024/3/13 12:28:46",  0,  -58,  999,  0,  0,  0,  -13,  -26,  -36
255438, 1710332927, "2024/3/13 12:28:47",  5,  -61,  1001,  0,  -1,  -1,  -12,  -26,  -36
255638, 1710332927, "2024/3/13 12:28:47",  0,  -58,  1000,  0,  0,  0,  -12,  -24,  -34
255838, 1710332927, "2024/3/13 12:28:47",  -2,  -58,  997,  0,  0,  -1,  -11,  -24,  -34
256038, 1710332927, "2024/3/13 12:28:47",  3,  -51,  1001,  0,  0,  -1,  -11,  -26,  -34
256238, 1710332927, "2024/3/13 12:28:47",  2,  -58,  1002,  0,  0,  0,  -12,  -24,  -35
256438, 1710332928, "2024/3/13 12:28:48",  6,  -60,  996,  0,  0,  0,  -11,  -25,  -36
256638, 1710332928, "2024/3/13 12:28:48",  2,  -54,  999,  0,  -1,  0,  -9,  -26,  -35
256838, 1710332928, "2024/3/13 12:28:48",  0,  -60,  999,  0,  0,  0,  -10,  -24,  -37
257038, 1710332928, "2024/3/13 12:28:48",  2,  -57,  1000,  0,  0,  -1,  -12,  -24,  -34
257238, 1710332928, "2024/3/13 12:28:48",  -1,  -55,  997,  0,  0,  0,  -11,  -25,  -36
257438, 1710332929, "2024/3/13 12:28:49",  2,  -57,  1002,  0,  0,  0,  -11,  -25,  -35
257638, 1710332929, "2024/3/13 12:28:49",  2,  -54,  997,  0,  0,  0,  -10,  -25,  -35
257838, 1710332929, "2024/3/13 12:28:49",  1,  -57,  1002,  0,  0,  0,  -9,  -25,  -34
258038, 1710332929, "2024/3/13 12:28:49",  2,  -58,  1002,  0,  -1,  -1,  -13,  -26,  -34
258238, 1710332929, "2024/3/13 12:28:49",  4,  -57,  1002,  0,  0,  -1,  -11,  -25,  -34
258438, 1710332930, "2024/3/13 12:28:50",  3,  -55,  1001,  0,  0,  0,  -12,  -26,  -35
258638, 1710332930, "2024/3/13 12:28:50",  5,  -62,  997,  0,  0,  0,  -10,  -24,  -34
258838, 1710332930, "2024/3/13 12:28:50",  4,  -60,  1000,  0,  -1,  0,  -11,  -25,  -35
259038, 1710332930, "2024/3/13 12:28:50",  1,  -57,  1000,  0,  0,  0,  -11,  -25,  -34
259238, 1710332930, "2024/3/13 12:28:50",  7,  -56,  1001,  0,  0,  -1,  -11,  -25,  -34
259438, 1710332931, "2024/3/13 12:28:51",  4,  -54,  997,  0,  -1,  0,  -11,  -26,  -33
259638, 1710332931, "2024/3/13 12:28:51",  5,  -61,  998,  0,  0,  -1,  -11,  -26,  -33
259838, 1710332931, "2024/3/13 12:28:51",  1,  -58,  999,  0,  0,  0,  -12,  -25,  -33
260038, 1710332931, "2024/3/13 12:28:51",  4,  -56,  1003,  0,  0,  0,  -11,  -24,  -36
260238, 1710332931, "2024/3/13 12:28:51",  1,  -63,  1000,  0,  0,  0,  -12,  -25,  -36
260438, 1710332932, "2024/3/13 12:28:52",  5,  -59,  1000,  0,  0,  0,  -11,  -27,  -34
260638, 1710332932, "2024/3/13 12:28:52",  4,  -52,  998,  0,  0,  0,  -10,  -25,  -35
260838, 1710332932, "2024/3/13 12:28:52",  3,  -52,  1001,  0,  0,  0,  -11,  -25,  -36
261038, 1710332932, "2024/3/13 12:28:52",  5,  -62,  998,  0,  0,  0,  -11,  -24,  -34
261238, 1710332932, "2024/3/13 12:28:52",  3,  -55,  999,  0,  0,  0,  -10,  -24,  -35
261438, 1710332933, "2024/3/13 12:28:53",  5,  -59,  1000,  0,  0,  0,  -10,  -26,  -35
261638, 1710332933, "2024/3/13 12:28:53",  2,  -58,  999,  0,  0,  0,  -9,  -24,  -34
261838, 1710332933, "2024/3/13 12:28:53",  2,  -52,  1001,  0,  0,  -1,  -11,  -24,  -34
262038, 1710332933, "2024/3/13 12:28:53",  1,  -60,  999,  0,  0,  0,  -12,  -24,  -35
262238, 1710332933, "2024/3/13 12:28:53",  3,  -56,  999,  0,  0,  0,  -10,  -26,  -34
262438, 1710332934, "2024/3/13 12:28:54",  2,  -55,  1003,  0,  0,  0,  -12,  -24,  -35
262638, 1710332934, "2024/3/13 12:28:54",  5,  -55,  1000,  0,  0,  0,  -9,  -26,  -33
262838, 1710332934, "2024/3/13 12:28:54",  -1,  -56,  998,  0,  -1,  0,  -10,  -25,  -35
263038, 1710332934, "2024/3/13 12:28:54",  4,  -59,  1003,  0,  0,  -1,  -12,  -25,  -34
263238, 1710332934, "2024/3/13 12:28:54",  5,  -54,  1000,  0,  0,  0,  -11,  -26,  -33
263438, 1710332935, "2024/3/13 12:28:55",  4,  -58,  1000,  0,  0,  -1,  -11,  -26,  -36
263638, 1710332935, "2024/3/13 12:28:55",  1,  -61,  997,  0,  0,  -1,  -11,  -26,  -35
263838, 1710332935, "2024/3/13 12:28:55",  5,  -60,  1003,  0,  0,  0,  -11,  -25,  -34
264038, 1710332935, "2024/3/13 12:28:55",  3,  -55,  1000,  0,  -1,  0,  -10,  -25,  -35
264238, 1710332935, "2024/3/13 12:28:55",  0,  -58,  1001,  0,  0,  0,  -10,  -25,  -35
264438, 1710332936, "2024/3/13 12:28:56",  3,  -63,  1003,  0,  0,  -1,  -11,  -26,  -34
264638, 1710332936, "2024/3/13 12:28:56",  7,  -58,  1001,  0,  0,  -1,  -12,  -25,  -34
264838, 1710332936, "2024/3/13 12:28:56",  4,  -61,  999,  0,  0,  0,  -11,  -24,  -36
265038, 1710332936, "2024/3/13 12:28:56",  8,  -61,  998,  0,  0,  0,  -11,  -24,  -35
265238, 1710332936, "2024/3/13 12:28:56",  3,  -53,  1001,  0,  0,  0,  -11,  -25,  -34
265438, 1710332937, "2024/3/13 12:28:57",  3,  -57,  1002,  0,  0,  -1,  -10,  -25,  -34
265638, 1710332937, "2024/3/13 12:28:57",  3,  -58,  998,  0,  0,  0,  -10,  -26,  -37
265838, 1710332937, "2024/3/13 12:28:57",  -1,  -57,  997,  0,  0,  -1,  -13,  -26,  -34
266038, 1710332937, "2024/3/13 12:28:57",  5,  -55,  1000,  0,  0,  0,  -11,  -27,  -34
266238, 1710332937, "2024/3/13 12:28:57",  3,  -63,  1001,  0,  0,  0,  -13,  -25,  -35
266438, 1710332938, "2024/3/13 12:28:58",  4,  -59,  999,  0,  0,  0,  -12,  -25,  -35
266638, 1710332938, "2024/3/13 12:28:58",  7,  -57,  999,  0,  0,  0,  -10,  -25,  -36
266838, 1710332938, "2024/3/13 12:28:58",  5,  -56,  1002,  0,  0,  0,  -12,  -26,  -36
267038, 1710332938, "2024/3/13 12:28:58",  1,  -61,  999,  0,  -1,  0,  -11,  -25,  -36
267238, 1710332938, "2024/3/13 12:28:58",  5,  -60,  1002,  0,  0,  -1,  -11,  -24,  -36
267438, 1710332939, "2024/3/13 12:28:59",  8,  -62,  1001,  0,  0,  -1,  -10,  -25,  -34
267638, 1710332939, "2024/3/13 12:28:59",  6,  -58,  1000,  0,  0,  0,  -11,  -26,  -34
267838, 1710332939, "2024/3/13 12:28:59",  3,  -58,  1000,  0,  0,  0,  -10,  -25,  -36
268038, 1710332939, "2024/3/13 12:28:59",  9,  -53,  1002,  0,  0,  0,  -12,  -25,  -34
268238, 1710332939, "2024/3/13 12:28:59",  2,  -58,  1000,  1,  0,  0,  -12,  -26,  -34
268438, 1710332940, "2024/3/13 12:29:0",  1,  -59,  1000,  0,  0,  0,  -11,  -26,  -34
268638, 1710332940, "2024/3/13 12:29:0",  -1,  -61,  1003,  0,  0,  -1,  -12,  -25,  -35
268838, 1710332940, "2024/3/13 12:29:0",  0,  -57,  1003,  0,  0,  -1,  -10,  -26,  -35
269038, 1710332940, "2024/3/13 12:29:0",  0,  -56,  1003,  0,  0,  0,  -11,  -24,  -35
269238, 1710332940, "2024/3/13 12:29:0",  3,  -55,  1000,  0,  -1,  0,  -11,  -26,  -34
269438, 1710332941, "2024/3/13 12:29:1",  8,  -52,  1000,  0,  0,  0,  -12,  -25,  -35
269638, 1710332941, "2024/3/13 12:29:1",  1,  -49,  1000,  0,  0,  0,  -12,  -24,  -36
269838, 1710332941, "2024/3/13 12:29:1",  5,  -57,  1000,  0,  0,  0,  -9,  -24,  -34
270038, 1710332941, "2024/3/13 12:29:1",  3,  -56,  1000,  0,  0,  0,  -11,  -25,  -35
270238, 1710332941, "2024/3/13 12:29:1",  4,  -58,  1001,  0,  0,  0,  -10,  -26,  -35
270438, 1710332942, "2024/3/13 12:29:2",  9,  -55,  999,  0,  0,  0,  -10,  -26,  -36
270638, 1710332942, "2024/3/13 12:29:2",  -2,  -58,  996,  0,  0,  -1,  -12,  -25,  -36
270838, 1710332942, "2024/3/13 12:29:2",  2,  -65,  1000,  0,  0,  0,  -11,  -25,  -34
271038, 1710332942, "2024/3/13 12:29:2",  2,  -59,  998,  0,  0,  0,  -10,  -26,  -36
271238, 1710332942, "2024/3/13 12:29:2",  1,  -56,  1000,  0,  0,  0,  -11,  -24,  -35
271438, 1710332943, "2024/3/13 12:29:3",  2,  -54,  998,  0,  0,  0,  -12,  -24,  -34
271638, 1710332943, "2024/3/13 12:29:3",  -2,  -45,  968,  0,  0,  0,  -12,  -27,  -34
271838, 1710332943, "2024/3/13 12:29:3",  0,  -56,  998,  0,  0,  0,  -10,  -25,  -35
272038, 1710332943, "2024/3/13 12:29:3",  6,  -58,  1002,  0,  0,  0,  -11,  -26,  -35
272238, 1710332943, "2024/3/13 12:29:3",  5,  -60,  1003,  0,  0,  -1,  -11,  -26,  -35
272438, 1710332944, "2024/3/13 12:29:4",  2,  -56,  997,  0,  0,  0,  -11,  -25,  -35
272638, 1710332944, "2024/3/13 12:29:4",  3,  -62,  998,  0,  0,  -1,  -11,  -24,  -37
272838, 1710332944, "2024/3/13 12:29:4",  0,  -60,  1002,  0,  0,  0,  -12,  -25,  -37
273038, 1710332944, "2024/3/13 12:29:4",  3,  -60,  1001,  0,  0,  -1,  -10,  -26,  -36
273238, 1710332944, "2024/3/13 12:29:4",  2,  -60,  1000,  0,  0,  0,  -10,  -25,  -36
273438, 1710332945, "2024/3/13 12:29:5",  2,  -57,  998,  0,  0,  0,  -9,  -25,  -36
273638, 1710332945, "2024/3/13 12:29:5",  1,  -60,  999,  0,  0,  -1,  -11,  -26,  -35
273838, 1710332945, "2024/3/13 12:29:5",  -2,  -62,  1001,  0,  0,  0,  -11,  -26,  -35
274038, 1710332945, "2024/3/13 12:29:5",  4,  -60,  1002,  0,  0,  0,  -11,  -26,  -35
274238, 1710332945, "2024/3/13 12:29:5",  4,  -59,  1000,  0,  0,  0,  -11,  -26,  -37
274438, 1710332946, "2024/3/13 12:29:6",  4,  -62,  998,  0,  0,  -1,  -11,  -27,  -33
274638, 1710332946, "2024/3/13 12:29:6",  5,  -59,  997,  0,  0,  0,  -9,  -26,  -34
274838, 1710332946, "2024/3/13 12:29:6",  4,  -60,  999,  0,  0,  -1,  -11,  -25,  -35
275038, 1710332946, "2024/3/13 12:29:6",  5,  -54,  999,  0,  0,  -1,  -12,  -25,  -36
275238, 1710332946, "2024/3/13 12:29:6",  1,  -64,  1000,  0,  0,  0,  -10,  -25,  -36
275438, 1710332947, "2024/3/13 12:29:7",  1,  -59,  999,  0,  0,  0,  -11,  -26,  -37
275638, 1710332947, "2024/3/13 12:29:7",  1,  -63,  1002,  0,  0,  -1,  -10,  -25,  -34
275838, 1710332947, "2024/3/13 12:29:7",  3,  -57,  997,  0,  0,  0,  -10,  -25,  -36
276038, 1710332947, "2024/3/13 12:29:7",  6,  -54,  1000,  0,  0,  -1,  -11,  -25,  -37
276238, 1710332947, "2024/3/13 12:29:7",  4,  -54,  1001,  0,  -1,  -1,  -10,  -25,  -37
276438, 1710332948, "2024/3/13 12:29:8",  5,  -57,  1001,  0,  0,  0,  -11,  -23,  -36
276638, 1710332948, "2024/3/13 12:29:8",  5,  -62,  1000,  0,  0,  0,  -11,  -25,  -36
276838, 1710332948, "2024/3/13 12:29:8",  0,  -57,  1001,  0,  0,  0,  -11,  -24,  -35
277038, 1710332948, "2024/3/13 12:29:8",  3,  -57,  1003,  0,  0,  0,  -11,  -26,  -36
277238, 1710332948, "2024/3/13 12:29:8",  3,  -58,  1000,  0,  0,  0,  -11,  -26,  -36
277438, 1710332949, "2024/3/13 12:29:9",  5,  -53,  1001,  0,  0,  0,  -11,  -26,  -36
277638, 1710332949, "2024/3/13 12:29:9",  3,  -64,  1000,  0,  0,  0,  -10,  -25,  -37
277838, 1710332949, "2024/3/13 12:29:9",  6,  -63,  1003,  0,  0,  -1,  -10,  -25,  -36
278038, 1710332949, "2024/3/13 12:29:9",  11,  -57,  996,  0,  0,  0,  -11,  -26,  -36
278238, 1710332949, "2024/3/13 12:29:9",  4,  -58,  999,  0,  0,  0,  -10,  -26,  -36
278438, 1710332950, "2024/3/13 12:29:10",  -1,  -53,  999,  0,  0,  0,  -11,  -25,  -36
278638, 1710332950, "2024/3/13 12:29:10",  2,  -56,  997,  0,  0,  0,  -11,  -27,  -36
278838, 1710332950, "2024/3/13 12:29:10",  1,  -57,  1002,  0,  0,  0,  -12,  -26,  -35
279038, 1710332950, "2024/3/13 12:29:10",  0,  -61,  998,  0,  0,  -1,  -10,  -25,  -37
279238, 1710332950, "2024/3/13 12:29:10",  0,  -57,  998,  0,  0,  0,  -12,  -26,  -36
279438, 1710332951, "2024/3/13 12:29:11",  4,  -61,  1000,  0,  0,  0,  -11,  -26,  -35
279638, 1710332951, "2024/3/13 12:29:11",  1,  -56,  1003,  0,  0,  -1,  -13,  -27,  -36
279838, 1710332951, "2024/3/13 12:29:11",  1,  -58,  1002,  0,  0,  0,  -9,  -26,  -37
280038, 1710332951, "2024/3/13 12:29:11",  5,  -61,  1002,  0,  0,  0,  -12,  -26,  -37
280238, 1710332951, "2024/3/13 12:29:11",  5,  -56,  997,  0,  0,  -1,  -12,  -25,  -38
280438, 1710332952, "2024/3/13 12:29:12",  4,  -59,  1003,  0,  0,  0,  -12,  -26,  -36
280638, 1710332952, "2024/3/13 12:29:12",  4,  -52,  1000,  0,  0,  -1,  -11,  -25,  -36
280838, 1710332952, "2024/3/13 12:29:12",  8,  -61,  1001,  0,  0,  0,  -10,  -26,  -36
281038, 1710332952, "2024/3/13 12:29:12",  3,  -64,  998,  0,  0,  0,  -12,  -24,  -38
281238, 1710332952, "2024/3/13 12:29:12",  2,  -54,  1001,  0,  0,  0,  -11,  -24,  -35
281438, 1710332953, "2024/3/13 12:29:13",  4,  -64,  1001,  0,  0,  0,  -10,  -26,  -35
281638, 1710332953, "2024/3/13 12:29:13",  6,  -57,  1003,  0,  0,  0,  -12,  -26,  -36
281838, 1710332953, "2024/3/13 12:29:13",  8,  -61,  998,  0,  0,  0,  -11,  -25,  -35
282038, 1710332953, "2024/3/13 12:29:13",  2,  -61,  1003,  0,  0,  -1,  -11,  -27,  -36
282238, 1710332953, "2024/3/13 12:29:13",  5,  -53,  998,  0,  0,  0,  -12,  -26,  -35
282438, 1710332954, "2024/3/13 12:29:14",  5,  -57,  1003,  0,  0,  0,  -12,  -25,  -36
282638, 1710332954, "2024/3/13 12:29:14",  6,  -57,  997,  0,  0,  0,  -9,  -25,  -36
282838, 1710332954, "2024/3/13 12:29:14",  4,  -61,  1001,  0,  -1,  0,  -13,  -27,  -36
283038, 1710332954, "2024/3/13 12:29:14",  2,  -55,  999,  0,  0,  0,  -13,  -26,  -36
283238, 1710332954, "2024/3/13 12:29:14",  1,  -54,  1003,  0,  0,  -1,  -12,  -27,  -36
283438, 1710332955, "2024/3/13 12:29:15",  3,  -57,  998,  0,  0,  -1,  -11,  -26,  -37
283638, 1710332955, "2024/3/13 12:29:15",  4,  -54,  1000,  0,  0,  0,  -10,  -25,  -36
283838, 1710332955, "2024/3/13 12:29:15",  4,  -60,  998,  0,  0,  -1,  -11,  -26,  -36
284038, 1710332955, "2024/3/13 12:29:15",  4,  -63,  999,  0,  0,  -1,  -13,  -24,  -36
284238, 1710332955, "2024/3/13 12:29:15",  6,  -59,  1002,  0,  0,  -1,  -11,  -26,  -35
284438, 1710332956, "2024/3/13 12:29:16",  3,  -54,  1000,  0,  0,  -1,  -11,  -25,  -36
284638, 1710332956, "2024/3/13 12:29:16",  1,  -62,  1000,  0,  0,  0,  -11,  -25,  -36
284838, 1710332956, "2024/3/13 12:29:16",  2,  -54,  1001,  0,  0,  0,  -10,  -25,  -36
285038, 1710332956, "2024/3/13 12:29:16",  8,  -56,  997,  0,  -1,  0,  -12,  -26,  -36
285238, 1710332956, "2024/3/13 12:29:16",  8,  -57,  999,  0,  0,  0,  -12,  -27,  -37
285438, 1710332957, "2024/3/13 12:29:17",  1,  -59,  1000,  0,  -1,  -1,  -11,  -25,  -36
285638, 1710332957, "2024/3/13 12:29:17",  3,  -57,  1000,  0,  0,  0,  -11,  -27,  -36
285838, 1710332957, "2024/3/13 12:29:17",  6,  -60,  1001,  0,  -1,  -1,  -11,  -25,  -36
286038, 1710332957, "2024/3/13 12:29:17",  2,  -54,  1000,  0,  0,  0,  -12,  -26,  -36
286238, 1710332957, "2024/3/13 12:29:17",  4,  -51,  997,  0,  0,  0,  -12,  -25,  -35
286438, 1710332958, "2024/3/13 12:29:18",  1,  -51,  1001,  0,  0,  0,  -11,  -26,  -37
286638, 1710332958, "2024/3/13 12:29:18",  4,  -60,  998,  0,  0,  0,  -12,  -26,  -37
286838, 1710332958, "2024/3/13 12:29:18",  4,  -55,  1000,  0,  0,  -1,  -12,  -25,  -36
287038, 1710332958, "2024/3/13 12:29:18",  2,  -57,  1000,  0,  -1,  -1,  -12,  -26,  -38
287238, 1710332958, "2024/3/13 12:29:18",  2,  -64,  1000,  0,  0,  0,  -10,  -26,  -36
287438, 1710332959, "2024/3/13 12:29:19",  0,  -62,  1001,  0,  0,  -1,  -12,  -26,  -36
287638, 1710332959, "2024/3/13 12:29:19",  4,  -57,  1000,  0,  0,  0,  -11,  -27,  -36
287838, 1710332959, "2024/3/13 12:29:19",  3,  -57,  999,  0,  0,  0,  -10,  -25,  -36
288038, 1710332959, "2024/3/13 12:29:19",  2,  -50,  1000,  0,  0,  0,  -10,  -26,  -36
288238, 1710332959, "2024/3/13 12:29:19",  4,  -64,  1003,  0,  0,  -1,  -14,  -26,  -36
288438, 1710332960, "2024/3/13 12:29:20",  4,  -58,  1002,  0,  0,  0,  -10,  -27,  -36
288638, 1710332960, "2024/3/13 12:29:20",  2,  -63,  995,  0,  0,  0,  -11,  -25,  -35
288838, 1710332960, "2024/3/13 12:29:20",  -6,  -75,  978,  0,  -1,  -1,  -12,  -23,  -36
289038, 1710332960, "2024/3/13 12:29:20",  3,  -57,  1003,  0,  0,  -1,  -11,  -25,  -37
289238, 1710332960, "2024/3/13 12:29:20",  3,  -58,  1000,  0,  0,  0,  -12,  -26,  -37
289438, 1710332961, "2024/3/13 12:29:21",  3,  -60,  997,  0,  0,  0,  -13,  -24,  -36
289638, 1710332961, "2024/3/13 12:29:21",  2,  -56,  1000,  0,  0,  -1,  -11,  -25,  -36
289838, 1710332961, "2024/3/13 12:29:21",  5,  -58,  1001,  0,  0,  -1,  -13,  -25,  -36
290038, 1710332961, "2024/3/13 12:29:21",  1,  -58,  997,  0,  0,  0,  -10,  -26,  -35
290238, 1710332961, "2024/3/13 12:29:21",  3,  -54,  1000,  0,  -1,  -1,  -12,  -25,  -37
290438, 1710332962, "2024/3/13 12:29:22",  3,  -64,  1001,  0,  0,  0,  -9,  -24,  -34
290638, 1710332962, "2024/3/13 12:29:22",  5,  -56,  1006,  0,  -1,  0,  -12,  -26,  -35
290838, 1710332962, "2024/3/13 12:29:22",  7,  -53,  1001,  0,  0,  -1,  -11,  -25,  -34
291038, 1710332962, "2024/3/13 12:29:22",  2,  -61,  1000,  0,  0,  0,  -12,  -24,  -37
291238, 1710332962, "2024/3/13 12:29:22",  3,  -58,  1002,  0,  0,  0,  -11,  -24,  -35
291438, 1710332963, "2024/3/13 12:29:23",  5,  -61,  1003,  0,  0,  0,  -11,  -25,  -35
291638, 1710332963, "2024/3/13 12:29:23",  6,  -53,  997,  0,  0,  0,  -11,  -25,  -36
291838, 1710332963, "2024/3/13 12:29:23",  6,  -56,  1001,  0,  -1,  0,  -11,  -27,  -34
292038, 1710332963, "2024/3/13 12:29:23",  8,  -58,  1001,  0,  -1,  0,  -10,  -24,  -35
292238, 1710332963, "2024/3/13 12:29:23",  2,  -58,  1001,  0,  0,  0,  -12,  -26,  -35
292438, 1710332964, "2024/3/13 12:29:24",  5,  -57,  1002,  0,  -1,  0,  -11,  -24,  -35
292638, 1710332964, "2024/3/13 12:29:24",  3,  -61,  1003,  0,  0,  -1,  -12,  -26,  -36
292838, 1710332964, "2024/3/13 12:29:24",  -1,  -56,  998,  0,  0,  0,  -11,  -27,  -35
293038, 1710332964, "2024/3/13 12:29:24",  0,  -60,  1000,  0,  0,  -1,  -10,  -25,  -35
293238, 1710332964, "2024/3/13 12:29:24",  3,  -63,  1002,  0,  0,  -1,  -11,  -24,  -34
293438, 1710332965, "2024/3/13 12:29:25",  1,  -58,  1002,  0,  0,  -1,  -12,  -27,  -35
293638, 1710332965, "2024/3/13 12:29:25",  5,  -55,  1002,  0,  0,  -1,  -11,  -27,  -35
293838, 1710332965, "2024/3/13 12:29:25",  0,  -59,  999,  0,  0,  -1,  -11,  -25,  -34
294038, 1710332965, "2024/3/13 12:29:25",  4,  -54,  1002,  0,  0,  0,  -11,  -25,  -35
294238, 1710332965, "2024/3/13 12:29:25",  2,  -59,  1002,  0,  0,  0,  -10,  -25,  -34
294438, 1710332966, "2024/3/13 12:29:26",  6,  -61,  1001,  0,  0,  0,  -14,  -25,  -37
294638, 1710332966, "2024/3/13 12:29:26",  6,  -57,  1000,  0,  0,  0,  -13,  -27,  -35
294838, 1710332966, "2024/3/13 12:29:26",  0,  -57,  1005,  0,  0,  0,  -11,  -25,  -35
295038, 1710332966, "2024/3/13 12:29:26",  4,  -58,  999,  0,  0,  -1,  -10,  -25,  -35
295238, 1710332966, "2024/3/13 12:29:26",  9,  -57,  1000,  0,  0,  0,  -12,  -25,  -36
295438, 1710332967, "2024/3/13 12:29:27",  2,  -56,  1003,  0,  0,  -1,  -11,  -25,  -37
295638, 1710332967, "2024/3/13 12:29:27",  4,  -57,  1000,  0,  0,  0,  -12,  -24,  -37
295838, 1710332967, "2024/3/13 12:29:27",  3,  -51,  998,  0,  0,  0,  -12,  -27,  -36
296038, 1710332967, "2024/3/13 12:29:27",  6,  -61,  1002,  0,  0,  -1,  -13,  -26,  -36
296238, 1710332967, "2024/3/13 12:29:27",  4,  -53,  1001,  0,  0,  0,  -12,  -25,  -37
296438, 1710332968, "2024/3/13 12:29:28",  4,  -54,  1000,  0,  0,  0,  -11,  -26,  -36
296638, 1710332968, "2024/3/13 12:29:28",  4,  -55,  1002,  0,  0,  -1,  -11,  -25,  -35
296838, 1710332968, "2024/3/13 12:29:28",  1,  -60,  988,  0,  0,  -1,  -11,  -25,  -37
297038, 1710332968, "2024/3/13 12:29:28",  5,  -61,  1000,  0,  0,  0,  -11,  -27,  -38
297238, 1710332968, "2024/3/13 12:29:28",  7,  -61,  1000,  0,  0,  0,  -11,  -25,  -35
297438, 1710332969, "2024/3/13 12:29:29",  5,  -60,  1000,  0,  0,  -1,  -11,  -26,  -36
297638, 1710332969, "2024/3/13 12:29:29",  5,  -52,  1000,  0,  0,  0,  -10,  -25,  -37
297838, 1710332969, "2024/3/13 12:29:29",  8,  -58,  997,  0,  0,  0,  -11,  -25,  -37
298038, 1710332969, "2024/3/13 12:29:29",  3,  -57,  999,  0,  0,  0,  -13,  -25,  -35
298238, 1710332969, "2024/3/13 12:29:29",  7,  -62,  1001,  0,  0,  -1,  -11,  -26,  -36
298438, 1710332970, "2024/3/13 12:29:30",  2,  -56,  1000,  0,  -1,  -1,  -11,  -24,  -37
298638, 1710332970, "2024/3/13 12:29:30",  4,  -56,  1003,  0,  0,  -1,  -13,  -25,  -35
298838, 1710332970, "2024/3/13 12:29:30",  2,  -59,  999,  0,  0,  -1,  -12,  -25,  -36
299038, 1710332970, "2024/3/13 12:29:30",  7,  -59,  1001,  0,  0,  -1,  -10,  -26,  -36
299238, 1710332970, "2024/3/13 12:29:30",  5,  -61,  1002,  0,  0,  0,  -12,  -25,  -38
299438, 1710332971, "2024/3/13 12:29:31",  8,  -60,  1001,  0,  0,  -1,  -12,  -26,  -36
299638, 1710332971, "2024/3/13 12:29:31",  9,  -51,  1001,  0,  0,  0,  -13,  -26,  -35
299838, 1710332971, "2024/3/13 12:29:31",  5,  -55,  1000,  0,  0,  0,  -11,  -27,  -36
300038, 1710332971, "2024/3/13 12:29:31",  4,  -60,  1001,  0,  0,  0,  -13,  -25,  -36
300238, 1710332971, "2024/3/13 12:29:31",  0,  -58,  1003,  0,  0,  -1,  -10,  -25,  -37
300438, 1710332972, "2024/3/13 12:29:32",  2,  -52,  1001,  0,  0,  0,  -10,  -26,  -36
300638, 1710332972, "2024/3/13 12:29:32",  4,  -58,  1000,  0,  0,  0,  -11,  -26,  -37
300838, 1710332972, "2024/3/13 12:29:32",  3,  -61,  1003,  0,  0,  -1,  -12,  -23,  -35
301038, 1710332972, "2024/3/13 12:29:32",  4,  -56,  1002,  0,  0,  0,  -10,  -27,  -37
301238, 1710332972, "2024/3/13 12:29:32",  3,  -59,  1002,  0,  0,  0,  -11,  -25,  -35
301438, 1710332973, "2024/3/13 12:29:33",  4,  -55,  997,  0,  0,  0,  -11,  -25,  -38
301638, 1710332973, "2024/3/13 12:29:33",  7,  -58,  1002,  0,  0,  0,  -13,  -26,  -35
301838, 1710332973, "2024/3/13 12:29:33",  6,  -58,  999,  0,  0,  0,  -10,  -26,  -37
302038, 1710332973, "2024/3/13 12:29:33",  3,  -61,  1000,  0,  0,  0,  -12,  -28,  -34
302238, 1710332973, "2024/3/13 12:29:33",  6,  -57,  1003,  0,  0,  0,  -10,  -26,  -35
302438, 1710332974, "2024/3/13 12:29:34",  7,  -57,  1000,  0,  0,  -1,  -12,  -25,  -37
302638, 1710332974, "2024/3/13 12:29:34",  7,  -59,  999,  0,  0,  0,  -11,  -25,  -35
302838, 1710332974, "2024/3/13 12:29:34",  0,  -58,  1002,  1,  -1,  0,  -13,  -26,  -36
303038, 1710332974, "2024/3/13 12:29:34",  3,  -60,  1001,  0,  0,  0,  -12,  -25,  -35
303238, 1710332974, "2024/3/13 12:29:34",  7,  -54,  1000,  0,  0,  -1,  -11,  -25,  -37
303438, 1710332975, "2024/3/13 12:29:35",  2,  -59,  1001,  0,  0,  0,  -12,  -25,  -36
303638, 1710332975, "2024/3/13 12:29:35",  6,  -57,  999,  0,  -1,  0,  -12,  -26,  -38
303838, 1710332975, "2024/3/13 12:29:35",  1,  -55,  999,  0,  0,  0,  -12,  -24,  -36
304038, 1710332975, "2024/3/13 12:29:35",  6,  -54,  998,  0,  -1,  -1,  -12,  -27,  -38
304238, 1710332975, "2024/3/13 12:29:35",  0,  -56,  1001,  0,  0,  0,  -12,  -26,  -36
304438, 1710332976, "2024/3/13 12:29:36",  7,  -56,  1001,  0,  0,  -1,  -11,  -27,  -38
304638, 1710332976, "2024/3/13 12:29:36",  0,  -61,  999,  0,  0,  -1,  -12,  -25,  -35
304838, 1710332976, "2024/3/13 12:29:36",  2,  -58,  999,  0,  0,  -1,  -11,  -27,  -36
305038, 1710332976, "2024/3/13 12:29:36",  2,  -59,  1001,  0,  0,  -1,  -11,  -26,  -36
305238, 1710332976, "2024/3/13 12:29:36",  6,  -54,  1001,  0,  0,  -1,  -11,  -27,  -34
305438, 1710332977, "2024/3/13 12:29:37",  -1,  -63,  1000,  0,  0,  0,  -11,  -26,  -35
305638, 1710332977, "2024/3/13 12:29:37",  9,  -57,  1000,  0,  -1,  -1,  -10,  -25,  -36
305838, 1710332977, "2024/3/13 12:29:37",  4,  -57,  1002,  0,  0,  0,  -12,  -25,  -36
306038, 1710332977, "2024/3/13 12:29:37",  2,  -58,  1000,  0,  0,  0,  -11,  -25,  -36
306238, 1710332977, "2024/3/13 12:29:37",  4,  -58,  1000,  0,  0,  0,  -12,  -26,  -36
306438, 1710332978, "2024/3/13 12:29:38",  4,  -56,  1000,  0,  -1,  -1,  -11,  -26,  -36
306638, 1710332978, "2024/3/13 12:29:38",  2,  -59,  1000,  0,  0,  -1,  -11,  -25,  -36
306838, 1710332978, "2024/3/13 12:29:38",  6,  -56,  1003,  0,  0,  -1,  -10,  -26,  -36
307038, 1710332978, "2024/3/13 12:29:38",  5,  -55,  1000,  0,  0,  -1,  -12,  -25,  -35
307238, 1710332978, "2024/3/13 12:29:38",  3,  -58,  1002,  0,  0,  0,  -10,  -27,  -36
307438, 1710332979, "2024/3/13 12:29:39",  6,  -58,  1001,  0,  0,  -1,  -11,  -26,  -36
307638, 1710332979, "2024/3/13 12:29:39",  3,  -59,  1007,  0,  -1,  -1,  -10,  -27,  -36
307838, 1710332979, "2024/3/13 12:29:39",  5,  -56,  999,  0,  0,  0,  -13,  -25,  -36
308038, 1710332979, "2024/3/13 12:29:39",  4,  -57,  1000,  0,  0,  0,  -12,  -26,  -36
308238, 1710332979, "2024/3/13 12:29:39",  10,  -62,  999,  0,  0,  0,  -12,  -24,  -36
308438, 1710332980, "2024/3/13 12:29:40",  1,  -56,  1000,  0,  0,  0,  -11,  -24,  -35
308638, 1710332980, "2024/3/13 12:29:40",  4,  -60,  996,  0,  -1,  0,  -12,  -28,  -35
308838, 1710332980, "2024/3/13 12:29:40",  3,  -60,  1002,  0,  -1,  0,  -12,  -25,  -37
309038, 1710332980, "2024/3/13 12:29:40",  7,  -56,  1000,  0,  0,  -1,  -11,  -26,  -36
309238, 1710332980, "2024/3/13 12:29:40",  5,  -61,  1003,  0,  0,  -1,  -11,  -26,  -36
309438, 1710332981, "2024/3/13 12:29:41",  4,  -54,  1001,  0,  0,  0,  -12,  -25,  -36
309638, 1710332981, "2024/3/13 12:29:41",  4,  -56,  1002,  0,  0,  -1,  -13,  -26,  -36
309838, 1710332981, "2024/3/13 12:29:41",  2,  -55,  1001,  0,  0,  0,  -10,  -25,  -36
310038, 1710332981, "2024/3/13 12:29:41",  2,  -58,  1002,  0,  0,  0,  -12,  -25,  -36
310238, 1710332981, "2024/3/13 12:29:41",  5,  -60,  999,  0,  0,  0,  -10,  -26,  -36
310438, 1710332982, "2024/3/13 12:29:42",  1,  -58,  998,  0,  0,  -1,  -10,  -25,  -37
310638, 1710332982, "2024/3/13 12:29:42",  3,  -57,  996,  0,  -1,  0,  -10,  -25,  -37
310838, 1710332982, "2024/3/13 12:29:42",  6,  -58,  1001,  0,  0,  0,  -13,  -26,  -36
311038, 1710332982, "2024/3/13 12:29:42",  3,  -53,  999,  0,  0,  0,  -10,  -27,  -36
311238, 1710332982, "2024/3/13 12:29:42",  3,  -61,  1003,  0,  0,  0,  -13,  -25,  -36
311438, 1710332983, "2024/3/13 12:29:43",  4,  -57,  999,  0,  0,  -1,  -11,  -24,  -37
311638, 1710332983, "2024/3/13 12:29:43",  2,  -56,  1004,  0,  0,  0,  -12,  -25,  -36
311838, 1710332983, "2024/3/13 12:29:43",  1,  -62,  1002,  0,  0,  0,  -13,  -25,  -37
312038, 1710332983, "2024/3/13 12:29:43",  1,  -60,  999,  0,  0,  -1,  -13,  -25,  -36
312238, 1710332983, "2024/3/13 12:29:43",  4,  -58,  1000,  0,  0,  -1,  -12,  -26,  -35
312438, 1710332984, "2024/3/13 12:29:44",  6,  -58,  1000,  0,  0,  0,  -11,  -26,  -35
312638, 1710332984, "2024/3/13 12:29:44",  5,  -61,  1000,  0,  0,  0,  -11,  -27,  -35
312838, 1710332984, "2024/3/13 12:29:44",  1,  -58,  1001,  0,  0,  -1,  -11,  -25,  -35
313038, 1710332984, "2024/3/13 12:29:44",  3,  -62,  1000,  0,  0,  -1,  -12,  -25,  -36
313238, 1710332984, "2024/3/13 12:29:44",  3,  -57,  1002,  0,  0,  0,  -12,  -26,  -36
313438, 1710332985, "2024/3/13 12:29:45",  9,  -54,  1002,  0,  0,  -1,  -11,  -25,  -36
313638, 1710332985, "2024/3/13 12:29:45",  8,  -60,  1001,  0,  0,  0,  -10,  -25,  -36
313838, 1710332985, "2024/3/13 12:29:45",  7,  -58,  1002,  0,  0,  0,  -11,  -24,  -37
314038, 1710332985, "2024/3/13 12:29:45",  7,  -59,  1001,  0,  0,  0,  -11,  -25,  -36
314238, 1710332985, "2024/3/13 12:29:45",  4,  -65,  1000,  0,  0,  0,  -11,  -26,  -35
314438, 1710332986, "2024/3/13 12:29:46",  5,  -56,  1000,  0,  0,  -1,  -10,  -26,  -36
314638, 1710332986, "2024/3/13 12:29:46",  9,  -56,  1001,  0,  0,  -1,  -12,  -26,  -35
314838, 1710332986, "2024/3/13 12:29:46",  4,  -56,  1003,  0,  0,  0,  -10,  -26,  -36
315038, 1710332986, "2024/3/13 12:29:46",  2,  -58,  1001,  0,  0,  0,  -10,  -26,  -37
315238, 1710332986, "2024/3/13 12:29:46",  4,  -61,  1000,  0,  0,  0,  -12,  -25,  -36
315438, 1710332987, "2024/3/13 12:29:47",  5,  -58,  1003,  0,  0,  -1,  -11,  -26,  -35
315638, 1710332987, "2024/3/13 12:29:47",  1,  -58,  1001,  0,  -1,  0,  -12,  -26,  -34
315838, 1710332987, "2024/3/13 12:29:47",  2,  -53,  1000,  0,  0,  -1,  -12,  -25,  -36
316038, 1710332987, "2024/3/13 12:29:47",  5,  -56,  1000,  0,  0,  0,  -11,  -26,  -36
316238, 1710332987, "2024/3/13 12:29:47",  3,  -60,  999,  0,  0,  0,  -10,  -26,  -36
316438, 1710332988, "2024/3/13 12:29:48",  8,  -52,  1001,  0,  0,  0,  -11,  -26,  -35
316638, 1710332988, "2024/3/13 12:29:48",  2,  -61,  1000,  0,  0,  0,  -12,  -26,  -35
316838, 1710332988, "2024/3/13 12:29:48",  3,  -57,  1001,  0,  0,  -1,  -12,  -25,  -36
317038, 1710332988, "2024/3/13 12:29:48",  1,  -57,  1000,  0,  0,  -1,  -11,  -25,  -37
317238, 1710332988, "2024/3/13 12:29:48",  2,  -60,  999,  0,  -1,  -1,  -11,  -27,  -36
317438, 1710332989, "2024/3/13 12:29:49",  6,  -58,  1002,  0,  0,  0,  -10,  -25,  -36
317638, 1710332989, "2024/3/13 12:29:49",  4,  -57,  1003,  0,  0,  0,  -12,  -26,  -36
317838, 1710332989, "2024/3/13 12:29:49",  6,  -59,  998,  0,  0,  0,  -11,  -27,  -37
318038, 1710332989, "2024/3/13 12:29:49",  6,  -59,  999,  0,  0,  -1,  -12,  -25,  -36
318238, 1710332989, "2024/3/13 12:29:49",  9,  -57,  1004,  0,  0,  -1,  -11,  -26,  -36
318438, 1710332990, "2024/3/13 12:29:50",  6,  -57,  1004,  0,  0,  0,  -10,  -26,  -36
318638, 1710332990, "2024/3/13 12:29:50",  2,  -55,  998,  0,  -1,  -1,  -9,  -25,  -36
318838, 1710332990, "2024/3/13 12:29:50",  8,  -57,  999,  0,  0,  0,  -10,  -25,  -37
319038, 1710332990, "2024/3/13 12:29:50",  1,  -54,  1000,  0,  0,  0,  -12,  -27,  -36
319238, 1710332990, "2024/3/13 12:29:50",  5,  -64,  1000,  0,  0,  0,  -11,  -26,  -37
319438, 1710332991, "2024/3/13 12:29:51",  0,  -63,  987,  0,  0,  0,  -12,  -26,  -36
319638, 1710332991, "2024/3/13 12:29:51",  3,  -61,  1003,  0,  0,  0,  -12,  -26,  -36
319838, 1710332991, "2024/3/13 12:29:51",  7,  -51,  999,  0,  0,  0,  -10,  -26,  -36
320038, 1710332991, "2024/3/13 12:29:51",  3,  -60,  1000,  0,  0,  -1,  -11,  -26,  -37
320238, 1710332991, "2024/3/13 12:29:51",  5,  -56,  1004,  0,  0,  0,  -13,  -28,  -36
320438, 1710332992, "2024/3/13 12:29:52",  10,  -63,  1002,  0,  0,  -1,  -11,  -25,  -36
320638, 1710332992, "2024/3/13 12:29:52",  1,  -58,  999,  0,  0,  -1,  -12,  -25,  -35
320838, 1710332992, "2024/3/13 12:29:52",  3,  -56,  997,  0,  -1,  0,  -11,  -24,  -35
321038, 1710332992, "2024/3/13 12:29:52",  4,  -58,  1003,  0,  0,  -1,  -11,  -24,  -36
321238, 1710332992, "2024/3/13 12:29:52",  0,  -55,  1000,  0,  0,  -1,  -11,  -26,  -37
321438, 1710332993, "2024/3/13 12:29:53",  -3,  -59,  1001,  0,  0,  0,  -11,  -26,  -38
321638, 1710332993, "2024/3/13 12:29:53",  10,  -58,  1006,  0,  -1,  0,  -11,  -26,  -36
321838, 1710332993, "2024/3/13 12:29:53",  0,  -57,  1000,  0,  0,  0,  -11,  -27,  -36
322038, 1710332993, "2024/3/13 12:29:53",  4,  -53,  1003,  0,  0,  -1,  -9,  -26,  -38
322238, 1710332993, "2024/3/13 12:29:53",  4,  -59,  1000,  0,  0,  -1,  -11,  -25,  -35
322438, 1710332994, "2024/3/13 12:29:54",  4,  -55,  1000,  0,  0,  0,  -12,  -26,  -37
322638, 1710332994, "2024/3/13 12:29:54",  5,  -59,  1001,  0,  -1,  0,  -12,  -26,  -36
322838, 1710332994, "2024/3/13 12:29:54",  1,  -59,  998,  0,  0,  -1,  -11,  -26,  -37
323038, 1710332994, "2024/3/13 12:29:54",  0,  -60,  1003,  0,  0,  0,  -11,  -25,  -36
323238, 1710332994, "2024/3/13 12:29:54",  -1,  -58,  1001,  0,  0,  0,  -12,  -26,  -36
323438, 1710332995, "2024/3/13 12:29:55",  -1,  -61,  1000,  0,  0,  0,  -13,  -25,  -34
323638, 1710332995, "2024/3/13 12:29:55",  3,  -54,  1002,  0,  -1,  -1,  -13,  -27,  -37
323838, 1710332995, "2024/3/13 12:29:55",  3,  -53,  999,  0,  0,  0,  -11,  -25,  -36
324038, 1710332995, "2024/3/13 12:29:55",  3,  -62,  1004,  0,  -1,  -1,  -12,  -25,  -36
324238, 1710332995, "2024/3/13 12:29:55",  7,  -58,  999,  0,  0,  -1,  -11,  -27,  -36
324438, 1710332996, "2024/3/13 12:29:56",  1,  -53,  999,  0,  -1,  0,  -10,  -25,  -35
324638, 1710332996, "2024/3/13 12:29:56",  4,  -60,  1002,  0,  0,  -1,  -12,  -25,  -36
324838, 1710332996, "2024/3/13 12:29:56",  5,  -63,  1003,  0,  -1,  0,  -11,  -25,  -37
325038, 1710332996, "2024/3/13 12:29:56",  3,  -57,  1001,  0,  0,  0,  -12,  -26,  -36
325238, 1710332996, "2024/3/13 12:29:56",  3,  -62,  999,  0,  0,  0,  -10,  -25,  -36
325438, 1710332997, "2024/3/13 12:29:57",  3,  -52,  1003,  0,  0,  0,  -11,  -25,  -37
325638, 1710332997, "2024/3/13 12:29:57",  2,  -59,  1001,  0,  0,  0,  -11,  -26,  -36
325838, 1710332997, "2024/3/13 12:29:57",  5,  -61,  1002,  0,  0,  0,  -11,  -25,  -37
326038, 1710332997, "2024/3/13 12:29:57",  0,  -61,  1003,  0,  0,  -1,  -12,  -26,  -36
326238, 1710332997, "2024/3/13 12:29:57",  4,  -56,  1005,  0,  0,  0,  -12,  -26,  -35
326438, 1710332998, "2024/3/13 12:29:58",  6,  -61,  1000,  0,  -1,  -1,  -11,  -27,  -35
326638, 1710332998, "2024/3/13 12:29:58",  9,  -54,  1000,  0,  0,  0,  -13,  -26,  -36
326838, 1710332998, "2024/3/13 12:29:58",  1,  -54,  1001,  0,  -1,  -1,  -12,  -25,  -37
327038, 1710332998, "2024/3/13 12:29:58",  1,  -59,  1000,  0,  0,  0,  -12,  -25,  -36
327238, 1710332998, "2024/3/13 12:29:58",  0,  -59,  1003,  0,  0,  0,  -12,  -26,  -36
327438, 1710332999, "2024/3/13 12:29:59",  2,  -58,  999,  0,  0,  0,  -13,  -25,  -37
327638, 1710332999, "2024/3/13 12:29:59",  8,  -61,  1000,  0,  0,  -1,  -12,  -25,  -38
327838, 1710332999, "2024/3/13 12:29:59",  7,  -57,  1000,  0,  0,  -1,  -11,  -25,  -36
328038, 1710332999, "2024/3/13 12:29:59",  4,  -58,  1000,  0,  0,  0,  -10,  -25,  -37
328238, 1710332999, "2024/3/13 12:29:59",  6,  -60,  1003,  0,  0,  0,  -11,  -24,  -35
328438, 1710333000, "2024/3/13 12:30:0",  1,  -56,  1000,  0,  0,  0,  -12,  -26,  -33
328638, 1710333000, "2024/3/13 12:30:0",  4,  -57,  1000,  0,  0,  0,  -12,  -25,  -37
328838, 1710333000, "2024/3/13 12:30:0",  3,  -57,  998,  0,  0,  -1,  -10,  -25,  -35
329038, 1710333000, "2024/3/13 12:30:0",  5,  -55,  1000,  0,  0,  -1,  -11,  -27,  -36
329238, 1710333000, "2024/3/13 12:30:0",  11,  -61,  1003,  0,  0,  0,  -10,  -25,  -36
329438, 1710333001, "2024/3/13 12:30:1",  5,  -58,  1003,  0,  0,  0,  -10,  -24,  -36
329638, 1710333001, "2024/3/13 12:30:1",  4,  -64,  1000,  0,  0,  -1,  -11,  -25,  -37
329838, 1710333001, "2024/3/13 12:30:1",  4,  -56,  1002,  0,  -1,  0,  -12,  -25,  -35
330038, 1710333001, "2024/3/13 12:30:1",  6,  -54,  999,  0,  0,  0,  -12,  -25,  -36
330238, 1710333001, "2024/3/13 12:30:1",  7,  -59,  1003,  0,  0,  -1,  -12,  -26,  -36
330438, 1710333002, "2024/3/13 12:30:2",  2,  -62,  1001,  0,  0,  -1,  -12,  -26,  -36
330638, 1710333002, "2024/3/13 12:30:2",  5,  -62,  998,  0,  0,  0,  -11,  -24,  -36
330838, 1710333002, "2024/3/13 12:30:2",  0,  -58,  999,  0,  0,  0,  -12,  -26,  -36
331038, 1710333002, "2024/3/13 12:30:2",  5,  -57,  999,  0,  0,  0,  -12,  -25,  -36
331238, 1710333002, "2024/3/13 12:30:2",  1,  -57,  1002,  0,  0,  0,  -10,  -25,  -36
331438, 1710333003, "2024/3/13 12:30:3",  3,  -55,  1000,  0,  0,  -1,  -10,  -27,  -36
331638, 1710333003, "2024/3/13 12:30:3",  9,  -58,  1001,  0,  0,  0,  -11,  -26,  -37
331838, 1710333003, "2024/3/13 12:30:3",  -1,  -60,  1002,  0,  0,  -1,  -10,  -27,  -36
332038, 1710333003, "2024/3/13 12:30:3",  3,  -57,  999,  0,  0,  0,  -11,  -24,  -35
332238, 1710333003, "2024/3/13 12:30:3",  3,  -59,  1000,  0,  0,  0,  -11,  -26,  -36
332438, 1710333004, "2024/3/13 12:30:4",  4,  -60,  1000,  0,  0,  0,  -11,  -26,  -36
332638, 1710333004, "2024/3/13 12:30:4",  7,  -57,  1004,  0,  0,  0,  -12,  -25,  -36
332838, 1710333004, "2024/3/13 12:30:4",  1,  -61,  1001,  0,  0,  -1,  -10,  -26,  -36
333038, 1710333004, "2024/3/13 12:30:4",  6,  -54,  1003,  0,  0,  0,  -12,  -23,  -36
333238, 1710333004, "2024/3/13 12:30:4",  6,  -64,  1000,  0,  0,  0,  -12,  -24,  -36
333438, 1710333005, "2024/3/13 12:30:5",  1,  -61,  1001,  0,  0,  0,  -11,  -24,  -36
333638, 1710333005, "2024/3/13 12:30:5",  8,  -61,  1002,  0,  0,  0,  -12,  -28,  -36
333838, 1710333005, "2024/3/13 12:30:5",  5,  -62,  1004,  0,  0,  -1,  -12,  -24,  -36
334038, 1710333005, "2024/3/13 12:30:5",  3,  -59,  1002,  0,  0,  0,  -12,  -27,  -36
334238, 1710333005, "2024/3/13 12:30:5",  2,  -59,  1000,  0,  -1,  0,  -11,  -27,  -37
334438, 1710333006, "2024/3/13 12:30:6",  0,  -59,  1001,  0,  0,  0,  -12,  -25,  -35
334638, 1710333006, "2024/3/13 12:30:6",  4,  -57,  1001,  0,  0,  0,  -11,  -25,  -37
334838, 1710333006, "2024/3/13 12:30:6",  4,  -57,  1004,  0,  0,  -1,  -11,  -26,  -35
335038, 1710333006, "2024/3/13 12:30:6",  1,  -56,  1002,  0,  0,  0,  -11,  -27,  -36
335238, 1710333006, "2024/3/13 12:30:6",  2,  -61,  1002,  0,  0,  0,  -11,  -24,  -36
335438, 1710333007, "2024/3/13 12:30:7",  2,  -59,  1001,  0,  0,  -1,  -11,  -25,  -35
335638, 1710333007, "2024/3/13 12:30:7",  -2,  -54,  1003,  0,  -1,  -1,  -10,  -24,  -35
335838, 1710333007, "2024/3/13 12:30:7",  -5,  -61,  1003,  0,  0,  0,  -11,  -25,  -35
336038, 1710333007, "2024/3/13 12:30:7",  1,  -53,  1003,  0,  0,  -1,  -11,  -24,  -36
336238, 1710333007, "2024/3/13 12:30:7",  1,  -58,  1004,  0,  0,  0,  -12,  -26,  -37
336438, 1710333008, "2024/3/13 12:30:8",  1,  -53,  1001,  0,  0,  -1,  -12,  -26,  -37
336638, 1710333008, "2024/3/13 12:30:8",  5,  -57,  999,  0,  0,  -1,  -12,  -25,  -36
336838, 1710333008, "2024/3/13 12:30:8",  3,  -60,  1001,  0,  0,  0,  -15,  -24,  -35
337038, 1710333008, "2024/3/13 12:30:8",  6,  -58,  1001,  0,  0,  -1,  -12,  -26,  -39
337238, 1710333008, "2024/3/13 12:30:8",  3,  -56,  1007,  0,  -1,  -1,  -12,  -24,  -38
337438, 1710333009, "2024/3/13 12:30:9",  1,  -56,  1000,  0,  0,  0,  -11,  -27,  -36
337638, 1710333009, "2024/3/13 12:30:9",  0,  -63,  1000,  0,  0,  0,  -11,  -28,  -37
337838, 1710333009, "2024/3/13 12:30:9",  0,  -56,  1000,  0,  0,  -1,  -11,  -26,  -36
338038, 1710333009, "2024/3/13 12:30:9",  7,  -56,  999,  0,  0,  -1,  -13,  -27,  -37
338238, 1710333009, "2024/3/13 12:30:9",  4,  -54,  1002,  0,  0,  -1,  -12,  -26,  -37
338438, 1710333010, "2024/3/13 12:30:10",  1,  -59,  1002,  0,  0,  -1,  -10,  -25,  -36
338638, 1710333010, "2024/3/13 12:30:10",  8,  -58,  1000,  0,  0,  0,  -11,  -26,  -37
338838, 1710333010, "2024/3/13 12:30:10",  0,  -57,  996,  0,  0,  0,  -11,  -27,  -38
339038, 1710333010, "2024/3/13 12:30:10",  5,  -60,  1000,  0,  0,  -1,  -11,  -27,  -37
339238, 1710333010, "2024/3/13 12:30:10",  0,  -55,  1001,  0,  0,  0,  -11,  -26,  -37
339438, 1710333011, "2024/3/13 12:30:11",  5,  -58,  1004,  0,  0,  -1,  -11,  -25,  -37
339638, 1710333011, "2024/3/13 12:30:11",  1,  -62,  1003,  0,  0,  -1,  -12,  -25,  -36
339838, 1710333011, "2024/3/13 12:30:11",  0,  -58,  1003,  0,  0,  0,  -10,  -25,  -37
340038, 1710333011, "2024/3/13 12:30:11",  1,  -57,  1002,  0,  0,  0,  -11,  -25,  -36
340238, 1710333011, "2024/3/13 12:30:11",  7,  -57,  1001,  0,  0,  0,  -12,  -25,  -36
340438, 1710333012, "2024/3/13 12:30:12",  6,  -58,  1001,  0,  0,  -1,  -12,  -25,  -36
340638, 1710333012, "2024/3/13 12:30:12",  5,  -58,  1003,  0,  0,  0,  -12,  -27,  -38
340838, 1710333012, "2024/3/13 12:30:12",  5,  -56,  1005,  0,  0,  -1,  -12,  -25,  -35
341038, 1710333012, "2024/3/13 12:30:12",  2,  -54,  1004,  0,  0,  0,  -10,  -26,  -36
341238, 1710333012, "2024/3/13 12:30:12",  5,  -64,  1000,  0,  0,  -1,  -11,  -25,  -37
341438, 1710333013, "2024/3/13 12:30:13",  6,  -60,  1001,  0,  0,  0,  -11,  -24,  -35
341638, 1710333013, "2024/3/13 12:30:13",  4,  -57,  1000,  0,  0,  0,  -14,  -26,  -36
341838, 1710333013, "2024/3/13 12:30:13",  0,  -63,  1000,  0,  0,  -1,  -12,  -25,  -36
342038, 1710333013, "2024/3/13 12:30:13",  9,  -56,  1002,  0,  0,  0,  -12,  -26,  -37
342238, 1710333013, "2024/3/13 12:30:13",  5,  -52,  999,  0,  -1,  -1,  -11,  -26,  -35
342438, 1710333014, "2024/3/13 12:30:14",  1,  -53,  1000,  0,  0,  -1,  -12,  -25,  -36
342638, 1710333014, "2024/3/13 12:30:14",  6,  -60,  1001,  0,  0,  0,  -12,  -27,  -37
342838, 1710333014, "2024/3/13 12:30:14",  0,  -61,  1001,  0,  -1,  0,  -11,  -25,  -38
343038, 1710333014, "2024/3/13 12:30:14",  4,  -58,  1004,  0,  0,  -1,  -9,  -25,  -35
343238, 1710333014, "2024/3/13 12:30:14",  0,  -56,  1003,  0,  0,  0,  -11,  -25,  -36
343438, 1710333015, "2024/3/13 12:30:15",  5,  -56,  1003,  0,  0,  -1,  -12,  -26,  -36
343638, 1710333015, "2024/3/13 12:30:15",  7,  -56,  1001,  0,  0,  -1,  -11,  -26,  -36
343838, 1710333015, "2024/3/13 12:30:15",  2,  -54,  1001,  0,  0,  -1,  -11,  -25,  -36
344038, 1710333015, "2024/3/13 12:30:15",  6,  -58,  1000,  0,  0,  0,  -12,  -27,  -37
344238, 1710333015, "2024/3/13 12:30:15",  6,  -58,  1003,  0,  0,  -1,  -11,  -26,  -36
344438, 1710333016, "2024/3/13 12:30:16",  -1,  -59,  1001,  0,  0,  -1,  -12,  -25,  -37
344638, 1710333016, "2024/3/13 12:30:16",  2,  -54,  1000,  0,  0,  0,  -11,  -26,  -36
344838, 1710333016, "2024/3/13 12:30:16",  4,  -57,  1000,  0,  -1,  -1,  -13,  -26,  -37
345038, 1710333016, "2024/3/13 12:30:16",  3,  -60,  1001,  0,  0,  -1,  -12,  -26,  -37
345238, 1710333016, "2024/3/13 12:30:16",  1,  -56,  1006,  0,  0,  0,  -12,  -27,  -35
345438, 1710333017, "2024/3/13 12:30:17",  3,  -54,  1002,  0,  0,  -1,  -12,  -25,  -37
345638, 1710333017, "2024/3/13 12:30:17",  5,  -64,  1005,  0,  0,  0,  -10,  -26,  -36
345838, 1710333017, "2024/3/13 12:30:17",  0,  -59,  1000,  0,  0,  0,  -12,  -27,  -35
346038, 1710333017, "2024/3/13 12:30:17",  3,  -61,  1002,  0,  0,  -1,  -11,  -26,  -37
346238, 1710333017, "2024/3/13 12:30:17",  5,  -57,  1003,  0,  0,  -1,  -11,  -25,  -36
346438, 1710333018, "2024/3/13 12:30:18",  9,  -53,  1001,  0,  -1,  -1,  -12,  -26,  -37
346638, 1710333018, "2024/3/13 12:30:18",  0,  -56,  1003,  0,  0,  0,  -11,  -26,  -36
346838, 1710333018, "2024/3/13 12:30:18",  3,  -59,  1002,  0,  0,  0,  -11,  -24,  -36
347038, 1710333018, "2024/3/13 12:30:18",  11,  -54,  1002,  0,  -1,  -1,  -10,  -23,  -36
347238, 1710333018, "2024/3/13 12:30:18",  3,  -56,  1001,  0,  0,  0,  -12,  -24,  -36
347438, 1710333019, "2024/3/13 12:30:19",  4,  -61,  998,  0,  0,  0,  -12,  -26,  -36
347638, 1710333019, "2024/3/13 12:30:19",  6,  -56,  999,  0,  0,  -1,  -13,  -24,  -35
347838, 1710333019, "2024/3/13 12:30:19",  4,  -60,  1001,  0,  0,  -1,  -11,  -25,  -37
348038, 1710333019, "2024/3/13 12:30:19",  3,  -64,  1003,  0,  0,  0,  -12,  -25,  -36
348238, 1710333019, "2024/3/13 12:30:19",  3,  -51,  1000,  0,  0,  -1,  -11,  -24,  -36
348438, 1710333020, "2024/3/13 12:30:20",  3,  -61,  1000,  0,  0,  -1,  -12,  -27,  -36
348638, 1710333020, "2024/3/13 12:30:20",  1,  -58,  1004,  0,  -1,  -1,  -11,  -25,  -35
348838, 1710333020, "2024/3/13 12:30:20",  -1,  -52,  999,  0,  0,  -1,  -12,  -25,  -36
349038, 1710333020, "2024/3/13 12:30:20",  6,  -59,  1003,  0,  0,  0,  -11,  -26,  -38
349238, 1710333020, "2024/3/13 12:30:20",  4,  -58,  1005,  0,  0,  -1,  -12,  -25,  -37
349438, 1710333021, "2024/3/13 12:30:21",  3,  -56,  1003,  0,  0,  0,  -11,  -24,  -36
349638, 1710333021, "2024/3/13 12:30:21",  8,  -58,  1001,  0,  0,  -1,  -11,  -24,  -36
349838, 1710333021, "2024/3/13 12:30:21",  0,  -58,  1000,  0,  0,  0,  -12,  -26,  -37
350038, 1710333021, "2024/3/13 12:30:21",  3,  -61,  1000,  0,  0,  0,  -9,  -26,  -37
350238, 1710333021, "2024/3/13 12:30:21",  2,  -61,  1000,  0,  0,  0,  -12,  -25,  -36
350438, 1710333022, "2024/3/13 12:30:22",  1,  -64,  1004,  0,  0,  0,  -11,  -26,  -36
350638, 1710333022, "2024/3/13 12:30:22",  2,  -64,  1004,  0,  0,  0,  -12,  -25,  -37
350838, 1710333022, "2024/3/13 12:30:22",  5,  -57,  1002,  0,  0,  0,  -11,  -26,  -37
351038, 1710333022, "2024/3/13 12:30:22",  3,  -61,  1001,  0,  0,  -1,  -12,  -24,  -36
351238, 1710333022, "2024/3/13 12:30:22",  2,  -60,  1001,  0,  0,  -1,  -10,  -25,  -37
351438, 1710333023, "2024/3/13 12:30:23",  6,  -59,  1000,  0,  0,  0,  -12,  -25,  -36
351638, 1710333023, "2024/3/13 12:30:23",  2,  -58,  1004,  0,  0,  0,  -11,  -26,  -35
351838, 1710333023, "2024/3/13 12:30:23",  7,  -56,  1002,  0,  0,  0,  -10,  -27,  -37
352038, 1710333023, "2024/3/13 12:30:23",  4,  -58,  1000,  0,  0,  0,  -11,  -25,  -36
352238, 1710333023, "2024/3/13 12:30:23",  3,  -61,  1001,  0,  0,  0,  -12,  -25,  -37
352438, 1710333024, "2024/3/13 12:30:24",  6,  -54,  1002,  0,  0,  0,  -12,  -27,  -36
352638, 1710333024, "2024/3/13 12:30:24",  6,  -56,  1003,  0,  0,  0,  -11,  -26,  -36
352838, 1710333024, "2024/3/13 12:30:24",  -1,  -56,  999,  0,  0,  0,  -11,  -26,  -36
353038, 1710333024, "2024/3/13 12:30:24",  0,  -60,  1005,  0,  0,  0,  -11,  -25,  -37
353238, 1710333024, "2024/3/13 12:30:24",  4,  -60,  1000,  0,  0,  0,  -12,  -24,  -37
353438, 1710333025, "2024/3/13 12:30:25",  4,  -55,  1001,  0,  0,  0,  -12,  -25,  -36
353638, 1710333025, "2024/3/13 12:30:25",  0,  -60,  1002,  0,  0,  0,  -11,  -25,  -36
353838, 1710333025, "2024/3/13 12:30:25",  3,  -55,  999,  0,  0,  0,  -12,  -26,  -36
354038, 1710333025, "2024/3/13 12:30:25",  6,  -59,  999,  0,  0,  -1,  -12,  -24,  -36
354238, 1710333025, "2024/3/13 12:30:25",  5,  -59,  1001,  0,  0,  -1,  -11,  -26,  -36
354438, 1710333026, "2024/3/13 12:30:26",  9,  -60,  1001,  0,  0,  0,  -11,  -24,  -36
354638, 1710333026, "2024/3/13 12:30:26",  6,  -58,  1004,  0,  0,  0,  -13,  -25,  -36
354838, 1710333026, "2024/3/13 12:30:26",  3,  -60,  1002,  0,  0,  0,  -11,  -25,  -35
355038, 1710333026, "2024/3/13 12:30:26",  0,  -63,  1000,  0,  -1,  0,  -12,  -25,  -37
355238, 1710333026, "2024/3/13 12:30:26",  5,  -56,  999,  0,  0,  0,  -11,  -26,  -37
355438, 1710333027, "2024/3/13 12:30:27",  -2,  -57,  1004,  0,  0,  0,  -11,  -27,  -35
355638, 1710333027, "2024/3/13 12:30:27",  6,  -55,  1003,  0,  0,  -1,  -13,  -27,  -37
355838, 1710333027, "2024/3/13 12:30:27",  4,  -59,  1002,  0,  0,  0,  -10,  -26,  -36
356038, 1710333027, "2024/3/13 12:30:27",  5,  -64,  1003,  0,  0,  -1,  -12,  -27,  -35
356238, 1710333027, "2024/3/13 12:30:27",  2,  -55,  1000,  0,  0,  0,  -11,  -26,  -35
356438, 1710333028, "2024/3/13 12:30:28",  0,  -53,  1003,  0,  0,  -1,  -12,  -27,  -35
356638, 1710333028, "2024/3/13 12:30:28",  0,  -62,  1002,  0,  0,  -1,  -11,  -28,  -35
356838, 1710333028, "2024/3/13 12:30:28",  1,  -57,  1001,  0,  0,  0,  -10,  -24,  -35
357038, 1710333028, "2024/3/13 12:30:28",  4,  -58,  1000,  0,  0,  0,  -12,  -25,  -36
357238, 1710333028, "2024/3/13 12:30:28",  0,  -53,  1006,  0,  0,  0,  -11,  -25,  -36
357438, 1710333029, "2024/3/13 12:30:29",  4,  -58,  1003,  0,  0,  0,  -12,  -25,  -36
357638, 1710333029, "2024/3/13 12:30:29",  6,  -60,  1000,  0,  0,  0,  -13,  -26,  -36
357838, 1710333029, "2024/3/13 12:30:29",  2,  -56,  1003,  0,  0,  0,  -13,  -27,  -36
358038, 1710333029, "2024/3/13 12:30:29",  2,  -58,  1003,  0,  0,  0,  -12,  -26,  -35
358238, 1710333029, "2024/3/13 12:30:29",  9,  -58,  1001,  0,  0,  0,  -11,  -27,  -35
358438, 1710333030, "2024/3/13 12:30:30",  3,  -60,  1005,  0,  0,  0,  -12,  -25,  -36
358638, 1710333030, "2024/3/13 12:30:30",  5,  -58,  1003,  1,  0,  0,  -11,  -27,  -36
358838, 1710333030, "2024/3/13 12:30:30",  4,  -52,  1002,  0,  0,  0,  -12,  -26,  -37
359038, 1710333030, "2024/3/13 12:30:30",  7,  -59,  1003,  0,  0,  0,  -12,  -24,  -36
359238, 1710333030, "2024/3/13 12:30:30",  4,  -61,  1002,  0,  0,  0,  -11,  -25,  -35
359438, 1710333031, "2024/3/13 12:30:31",  5,  -56,  1003,  0,  0,  0,  -11,  -27,  -36
359638, 1710333031, "2024/3/13 12:30:31",  0,  -62,  1004,  0,  0,  0,  -11,  -26,  -34
359838, 1710333031, "2024/3/13 12:30:31",  2,  -57,  1001,  0,  0,  0,  -12,  -25,  -36
360038, 1710333031, "2024/3/13 12:30:31",  4,  -56,  1000,  0,  0,  -1,  -11,  -24,  -36
360238, 1710333032, "2024/3/13 12:30:32",  1,  -57,  1000,  0,  0,  0,  -12,  -26,  -36
360438, 1710333032, "2024/3/13 12:30:32",  2,  -58,  1003,  0,  0,  0,  -13,  -26,  -37
360638, 1710333032, "2024/3/13 12:30:32",  0,  -58,  1003,  0,  -1,  -1,  -12,  -25,  -37
360838, 1710333032, "2024/3/13 12:30:32",  5,  -56,  1000,  0,  0,  -1,  -11,  -27,  -36
361038, 1710333032, "2024/3/13 12:30:32",  -1,  -62,  1001,  0,  0,  -1,  -12,  -25,  -36
361238, 1710333032, "2024/3/13 12:30:32",  3,  -53,  1000,  0,  0,  0,  -11,  -25,  -36
361438, 1710333033, "2024/3/13 12:30:33",  4,  -57,  999,  0,  -1,  0,  -12,  -25,  -36
361638, 1710333033, "2024/3/13 12:30:33",  4,  -61,  1001,  0,  -1,  -1,  -12,  -25,  -36
361838, 1710333033, "2024/3/13 12:30:33",  6,  -58,  1003,  0,  0,  -1,  -11,  -27,  -36
362038, 1710333033, "2024/3/13 12:30:33",  7,  -52,  1000,  0,  0,  0,  -10,  -26,  -35
362238, 1710333033, "2024/3/13 12:30:33",  4,  -55,  1003,  0,  0,  0,  -11,  -24,  -35
362438, 1710333034, "2024/3/13 12:30:34",  4,  -57,  1002,  0,  0,  -1,  -10,  -25,  -36
362638, 1710333034, "2024/3/13 12:30:34",  -3,  -58,  1003,  0,  0,  0,  -11,  -27,  -36
362838, 1710333034, "2024/3/13 12:30:34",  3,  -57,  998,  0,  0,  0,  -11,  -26,  -35
363038, 1710333034, "2024/3/13 12:30:34",  5,  -62,  999,  0,  0,  0,  -10,  -25,  -35
363238, 1710333034, "2024/3/13 12:30:34",  3,  -55,  1000,  0,  0,  -1,  -11,  -25,  -36
363438, 1710333035, "2024/3/13 12:30:35",  3,  -62,  1001,  0,  0,  -1,  -13,  -25,  -35
363638, 1710333035, "2024/3/13 12:30:35",  6,  -55,  1000,  0,  0,  -1,  -12,  -25,  -35
363838, 1710333035, "2024/3/13 12:30:35",  7,  -57,  1002,  0,  0,  -1,  -11,  -26,  -36
364038, 1710333035, "2024/3/13 12:30:35",  5,  -53,  1003,  0,  0,  -1,  -12,  -25,  -36
364238, 1710333036, "2024/3/13 12:30:36",  5,  -56,  1000,  0,  0,  0,  -14,  -27,  -35
364438, 1710333036, "2024/3/13 12:30:36",  7,  -60,  1005,  0,  0,  0,  -10,  -26,  -36
364638, 1710333036, "2024/3/13 12:30:36",  2,  -55,  1000,  0,  0,  0,  -11,  -24,  -38
364838, 1710333036, "2024/3/13 12:30:36",  5,  -57,  1004,  0,  0,  0,  -13,  -26,  -37
365038, 1710333036, "2024/3/13 12:30:36",  6,  -60,  1002,  0,  0,  0,  -12,  -25,  -36
365238, 1710333037, "2024/3/13 12:30:37",  10,  -54,  1001,  0,  0,  0,  -12,  -25,  -36
365438, 1710333037, "2024/3/13 12:30:37",  2,  -55,  1002,  0,  0,  -1,  -11,  -25,  -36
365638, 1710333037, "2024/3/13 12:30:37",  6,  -57,  1002,  0,  0,  0,  -12,  -27,  -37
365838, 1710333037, "2024/3/13 12:30:37",  1,  -57,  1002,  0,  0,  0,  -11,  -26,  -37
366038, 1710333037, "2024/3/13 12:30:37",  3,  -56,  1003,  0,  0,  -1,  -12,  -25,  -37
366238, 1710333038, "2024/3/13 12:30:38",  4,  -56,  998,  0,  0,  0,  -13,  -26,  -36
366438, 1710333038, "2024/3/13 12:30:38",  5,  -54,  1002,  0,  0,  0,  -10,  -24,  -37
366638, 1710333038, "2024/3/13 12:30:38",  6,  -52,  1001,  0,  -1,  0,  -10,  -25,  -37
366838, 1710333038, "2024/3/13 12:30:38",  5,  -57,  1000,  0,  0,  0,  -11,  -25,  -36
367038, 1710333038, "2024/3/13 12:30:38",  1,  -59,  1000,  0,  0,  0,  -12,  -24,  -37
367238, 1710333039, "2024/3/13 12:30:39",  4,  -65,  1000,  0,  0,  0,  -11,  -27,  -36
367438, 1710333039, "2024/3/13 12:30:39",  2,  -58,  1003,  0,  0,  -1,  -13,  -26,  -36
367638, 1710333039, "2024/3/13 12:30:39",  0,  -55,  1003,  0,  0,  0,  -11,  -26,  -38
367838, 1710333039, "2024/3/13 12:30:39",  8,  -58,  999,  0,  0,  -1,  -12,  -25,  -37
368038, 1710333039, "2024/3/13 12:30:39",  4,  -62,  999,  0,  0,  0,  -11,  -26,  -36
368238, 1710333040, "2024/3/13 12:30:40",  2,  -58,  1000,  0,  0,  0,  -11,  -27,  -35
368438, 1710333040, "2024/3/13 12:30:40",  1,  -59,  1001,  0,  -1,  -1,  -11,  -26,  -35
368638, 1710333040, "2024/3/13 12:30:40",  5,  -58,  1004,  0,  0,  0,  -11,  -26,  -36
368838, 1710333040, "2024/3/13 12:30:40",  1,  -64,  1004,  0,  -1,  0,  -12,  -27,  -36
