millis,stamp,datetime,accX,accY,accZ,gyroX,gyroY,gyroZ,compX,compY,compZ
1111415, 1710334343, "2024/3/13 12:52:23",  9,  -54,  1005,  0,  0,  0,  -11,  -26,  -35
1111615, 1710334343, "2024/3/13 12:52:23",  5,  -58,  1001,  0,  -1,  -1,  -11,  -26,  -34
1111815, 1710334343, "2024/3/13 12:52:23",  4,  -56,  1006,  0,  0,  -1,  -11,  -27,  -35
1112015, 1710334343, "2024/3/13 12:52:23",  8,  -57,  1006,  0,  0,  -1,  -10,  -25,  -35
1112215, 1710334343, "2024/3/13 12:52:23",  3,  -62,  1000,  0,  0,  -1,  -11,  -24,  -34
1112415, 1710334344, "2024/3/13 12:52:24",  6,  -53,  1006,  0,  0,  -1,  -10,  -26,  -36
1112615, 1710334344, "2024/3/13 12:52:24",  7,  -55,  1009,  0,  0,  0,  -11,  -24,  -34
1112815, 1710334344, "2024/3/13 12:52:24",  5,  -59,  1002,  0,  0,  -1,  -11,  -27,  -34
1113015, 1710334344, "2024/3/13 12:52:24",  10,  -58,  1001,  0,  0,  -1,  -9,  -27,  -34
1113216, 1710334344, "2024/3/13 12:52:24",  7,  -57,  1003,  0,  0,  -1,  -11,  -27,  -34
1113416, 1710334345, "2024/3/13 12:52:25",  4,  -60,  1003,  0,  0,  0,  -12,  -25,  -34
1113616, 1710334345, "2024/3/13 12:52:25",  4,  -57,  1003,  0,  0,  0,  -12,  -26,  -33
1113816, 1710334345, "2024/3/13 12:52:25",  3,  -59,  1003,  0,  0,  0,  -8,  -26,  -34
1114016, 1710334345, "2024/3/13 12:52:25",  5,  -64,  1003,  0,  0,  -1,  -11,  -26,  -34
1114216, 1710334345, "2024/3/13 12:52:25",  4,  -64,  1003,  0,  0,  -1,  -11,  -25,  -34
1114416, 1710334346, "2024/3/13 12:52:26",  1,  -59,  1005,  0,  0,  -1,  -11,  -27,  -33
1114616, 1710334346, "2024/3/13 12:52:26",  4,  -56,  1007,  0,  0,  0,  -11,  -25,  -34
1114816, 1710334346, "2024/3/13 12:52:26",  5,  -55,  1004,  0,  -1,  0,  -10,  -26,  -34
1115016, 1710334346, "2024/3/13 12:52:26",  5,  -58,  1006,  0,  0,  -1,  -9,  -25,  -36
1115216, 1710334346, "2024/3/13 12:52:26",  4,  -58,  1004,  0,  0,  -1,  -11,  -25,  -33
1115416, 1710334347, "2024/3/13 12:52:27",  6,  -58,  1002,  0,  0,  -1,  -11,  -27,  -34
1115616, 1710334347, "2024/3/13 12:52:27",  1,  -54,  1003,  0,  0,  -1,  -10,  -27,  -35
1115816, 1710334347, "2024/3/13 12:52:27",  6,  -59,  1004,  0,  0,  -1,  -11,  -27,  -33
1116016, 1710334347, "2024/3/13 12:52:27",  4,  -58,  1004,  0,  0,  0,  -9,  -27,  -34
1116216, 1710334347, "2024/3/13 12:52:27",  7,  -54,  1012,  0,  0,  -1,  -10,  -25,  -35
1116416, 1710334348, "2024/3/13 12:52:28",  10,  -61,  1005,  0,  0,  -1,  -12,  -27,  -34
1116616, 1710334348, "2024/3/13 12:52:28",  8,  -57,  1002,  0,  -1,  0,  -11,  -27,  -35
1116816, 1710334348, "2024/3/13 12:52:28",  6,  -63,  1006,  0,  0,  0,  -12,  -26,  -35
1117016, 1710334348, "2024/3/13 12:52:28",  4,  -58,  1002,  0,  0,  0,  -12,  -27,  -35
1117216, 1710334348, "2024/3/13 12:52:28",  7,  -58,  1001,  0,  -1,  -1,  -12,  -27,  -36
1117416, 1710334349, "2024/3/13 12:52:29",  4,  -57,  1003,  0,  0,  0,  -11,  -27,  -34
1117616, 1710334349, "2024/3/13 12:52:29",  6,  -60,  1006,  0,  0,  0,  -11,  -27,  -32
1117816, 1710334349, "2024/3/13 12:52:29",  6,  -58,  1002,  0,  0,  -1,  -11,  -28,  -35
1118016, 1710334349, "2024/3/13 12:52:29",  8,  -61,  1002,  0,  0,  0,  -10,  -27,  -36
1118216, 1710334349, "2024/3/13 12:52:29",  9,  -53,  1004,  0,  0,  0,  -11,  -27,  -33
1118416, 1710334350, "2024/3/13 12:52:30",  8,  -60,  1004,  0,  0,  -1,  -11,  -27,  -35
1118616, 1710334350, "2024/3/13 12:52:30",  7,  -56,  1002,  0,  0,  -1,  -11,  -27,  -35
1118816, 1710334350, "2024/3/13 12:52:30",  3,  -54,  1002,  0,  0,  -1,  -11,  -26,  -34
1119016, 1710334350, "2024/3/13 12:52:30",  6,  -63,  1004,  0,  0,  -1,  -11,  -26,  -35
1119216, 1710334350, "2024/3/13 12:52:30",  5,  -56,  1006,  0,  0,  0,  -11,  -27,  -36
1119416, 1710334351, "2024/3/13 12:52:31",  8,  -59,  1004,  0,  0,  -1,  -11,  -27,  -33
1119616, 1710334351, "2024/3/13 12:52:31",  3,  -60,  1006,  0,  -1,  -1,  -11,  -27,  -34
1119816, 1710334351, "2024/3/13 12:52:31",  2,  -62,  1009,  0,  0,  -1,  -12,  -28,  -34
1120016, 1710334351, "2024/3/13 12:52:31",  10,  -59,  1002,  0,  0,  -1,  -11,  -27,  -35
1120216, 1710334351, "2024/3/13 12:52:31",  4,  -56,  1004,  0,  0,  -1,  -11,  -27,  -34
1120416, 1710334352, "2024/3/13 12:52:32",  5,  -58,  1003,  0,  -1,  -1,  -10,  -28,  -34
1120616, 1710334352, "2024/3/13 12:52:32",  9,  -55,  1004,  0,  0,  -1,  -12,  -27,  -34
1120816, 1710334352, "2024/3/13 12:52:32",  6,  -55,  1003,  0,  0,  -1,  -9,  -26,  -33
1121016, 1710334352, "2024/3/13 12:52:32",  7,  -59,  1003,  0,  0,  0,  -11,  -26,  -34
1121216, 1710334352, "2024/3/13 12:52:32",  6,  -61,  1001,  0,  0,  -1,  -10,  -27,  -33
1121416, 1710334353, "2024/3/13 12:52:33",  6,  -55,  1002,  0,  0,  0,  -10,  -26,  -33
1121616, 1710334353, "2024/3/13 12:52:33",  2,  -55,  1003,  0,  0,  -1,  -12,  -27,  -34
1121816, 1710334353, "2024/3/13 12:52:33",  6,  -63,  1002,  0,  0,  0,  -10,  -26,  -34
1122016, 1710334353, "2024/3/13 12:52:33",  8,  -62,  1001,  0,  0,  0,  -10,  -26,  -34
1122216, 1710334353, "2024/3/13 12:52:33",  5,  -58,  1007,  0,  0,  0,  -11,  -27,  -34
1122416, 1710334354, "2024/3/13 12:52:34",  3,  -58,  1006,  0,  0,  -1,  -9,  -26,  -36
1122616, 1710334354, "2024/3/13 12:52:34",  4,  -58,  1002,  0,  0,  0,  -11,  -28,  -35
1122816, 1710334354, "2024/3/13 12:52:34",  3,  -58,  1005,  0,  0,  -1,  -10,  -25,  -35
1123016, 1710334354, "2024/3/13 12:52:34",  5,  -57,  997,  0,  0,  -1,  -10,  -26,  -36
1123216, 1710334354, "2024/3/13 12:52:34",  8,  -55,  1004,  0,  0,  0,  -11,  -26,  -34
1123416, 1710334355, "2024/3/13 12:52:35",  9,  -59,  1007,  0,  0,  0,  -10,  -27,  -34
1123616, 1710334355, "2024/3/13 12:52:35",  8,  -60,  1004,  0,  0,  -1,  -11,  -27,  -33
1123816, 1710334355, "2024/3/13 12:52:35",  3,  -62,  1003,  0,  0,  -1,  -9,  -30,  -36
1124016, 1710334355, "2024/3/13 12:52:35",  7,  -58,  1000,  0,  -1,  -1,  -12,  -26,  -34
1124216, 1710334355, "2024/3/13 12:52:35",  9,  -58,  1000,  0,  0,  0,  -10,  -26,  -36
1124416, 1710334356, "2024/3/13 12:52:36",  7,  -61,  1008,  0,  0,  0,  -9,  -27,  -33
1124616, 1710334356, "2024/3/13 12:52:36",  13,  -61,  1002,  0,  0,  0,  -11,  -27,  -34
1124816, 1710334356, "2024/3/13 12:52:36",  9,  -63,  1006,  0,  0,  -1,  -11,  -28,  -34
1125016, 1710334356, "2024/3/13 12:52:36",  6,  -60,  1001,  0,  0,  -1,  -11,  -27,  -34
1125216, 1710334356, "2024/3/13 12:52:36",  11,  -62,  1008,  0,  0,  -1,  -11,  -27,  -33
1125416, 1710334357, "2024/3/13 12:52:37",  3,  -63,  1005,  0,  -1,  -1,  -10,  -27,  -35
1125616, 1710334357, "2024/3/13 12:52:37",  5,  -59,  1004,  0,  0,  -1,  -12,  -26,  -35
1125816, 1710334357, "2024/3/13 12:52:37",  7,  -60,  1002,  0,  -1,  0,  -10,  -28,  -34
1126016, 1710334357, "2024/3/13 12:52:37",  12,  -53,  1000,  0,  -1,  0,  -9,  -25,  -33
1126216, 1710334357, "2024/3/13 12:52:37",  8,  -60,  1006,  0,  0,  -1,  -10,  -27,  -35
1126416, 1710334358, "2024/3/13 12:52:38",  6,  -59,  1004,  0,  0,  -1,  -11,  -26,  -35
1126616, 1710334358, "2024/3/13 12:52:38",  5,  -64,  1000,  0,  0,  -1,  -11,  -25,  -34
1126816, 1710334358, "2024/3/13 12:52:38",  4,  -57,  1000,  0,  0,  -1,  -11,  -27,  -35
1127016, 1710334358, "2024/3/13 12:52:38",  7,  -60,  1005,  0,  0,  -1,  -11,  -26,  -36
1127216, 1710334358, "2024/3/13 12:52:38",  7,  -53,  1005,  0,  0,  0,  -10,  -25,  -34
1127416, 1710334359, "2024/3/13 12:52:39",  7,  -58,  996,  0,  0,  -1,  -11,  -27,  -33
1127616, 1710334359, "2024/3/13 12:52:39",  5,  -55,  1003,  0,  0,  0,  -10,  -26,  -36
1127816, 1710334359, "2024/3/13 12:52:39",  5,  -60,  1000,  0,  0,  -1,  -11,  -27,  -35
1128016, 1710334359, "2024/3/13 12:52:39",  7,  -59,  1005,  0,  0,  0,  -10,  -28,  -34
1128216, 1710334359, "2024/3/13 12:52:39",  6,  -66,  1000,  0,  0,  0,  -11,  -26,  -35
1128416, 1710334360, "2024/3/13 12:52:40",  8,  -60,  1003,  0,  0,  0,  -11,  -25,  -34
1128616, 1710334360, "2024/3/13 12:52:40",  7,  -61,  1004,  0,  0,  0,  -11,  -25,  -35
1128816, 1710334360, "2024/3/13 12:52:40",  7,  -62,  1006,  0,  0,  0,  -9,  -26,  -34
1129016, 1710334360, "2024/3/13 12:52:40",  4,  -60,  999,  0,  -1,  -1,  -11,  -26,  -35
1129216, 1710334360, "2024/3/13 12:52:40",  6,  -61,  1001,  0,  0,  -1,  -11,  -28,  -34
1129416, 1710334361, "2024/3/13 12:52:41",  10,  -58,  1005,  0,  0,  0,  -9,  -27,  -34
1129616, 1710334361, "2024/3/13 12:52:41",  9,  -59,  1009,  0,  0,  -1,  -10,  -28,  -34
1129816, 1710334361, "2024/3/13 12:52:41",  8,  -59,  1006,  0,  0,  0,  -11,  -27,  -35
1130016, 1710334361, "2024/3/13 12:52:41",  11,  -60,  1007,  0,  0,  0,  -10,  -25,  -34
1130216, 1710334361, "2024/3/13 12:52:41",  5,  -59,  1002,  0,  -1,  -1,  -10,  -25,  -35
1130416, 1710334362, "2024/3/13 12:52:42",  15,  -54,  1002,  0,  0,  0,  -10,  -25,  -34
1130616, 1710334362, "2024/3/13 12:52:42",  7,  -59,  1006,  0,  0,  0,  -10,  -28,  -33
1130816, 1710334362, "2024/3/13 12:52:42",  4,  -58,  1005,  0,  0,  0,  -11,  -27,  -33
1131016, 1710334362, "2024/3/13 12:52:42",  3,  -62,  1003,  0,  0,  0,  -11,  -28,  -34
1131216, 1710334362, "2024/3/13 12:52:42",  7,  -60,  1002,  0,  0,  -1,  -9,  -27,  -34
1131416, 1710334363, "2024/3/13 12:52:43",  3,  -62,  1004,  0,  -1,  -1,  -12,  -25,  -35
1131616, 1710334363, "2024/3/13 12:52:43",  4,  -57,  1002,  0,  0,  -1,  -10,  -27,  -34
1131816, 1710334363, "2024/3/13 12:52:43",  3,  -59,  1005,  0,  0,  0,  -10,  -27,  -34
1132016, 1710334363, "2024/3/13 12:52:43",  8,  -61,  1004,  0,  -1,  0,  -10,  -26,  -34
1132216, 1710334363, "2024/3/13 12:52:43",  6,  -58,  1002,  0,  0,  -1,  -12,  -28,  -35
1132416, 1710334364, "2024/3/13 12:52:44",  5,  -56,  1005,  0,  -1,  -1,  -12,  -27,  -34
1132616, 1710334364, "2024/3/13 12:52:44",  9,  -54,  1002,  0,  0,  -1,  -11,  -27,  -36
1132816, 1710334364, "2024/3/13 12:52:44",  6,  -58,  1000,  0,  0,  -1,  -10,  -28,  -34
1133016, 1710334364, "2024/3/13 12:52:44",  7,  -57,  1005,  0,  0,  0,  -10,  -27,  -35
1133216, 1710334364, "2024/3/13 12:52:44",  3,  -57,  1007,  0,  0,  -1,  -11,  -28,  -35
1133416, 1710334365, "2024/3/13 12:52:45",  10,  -55,  1007,  0,  0,  0,  -11,  -25,  -35
1133616, 1710334365, "2024/3/13 12:52:45",  5,  -58,  1001,  0,  -1,  0,  -11,  -28,  -35
1133816, 1710334365, "2024/3/13 12:52:45",  4,  -55,  1005,  0,  0,  -1,  -11,  -27,  -36
1134016, 1710334365, "2024/3/13 12:52:45",  4,  -59,  1004,  0,  0,  -1,  -11,  -27,  -34
1134216, 1710334365, "2024/3/13 12:52:45",  8,  -58,  1005,  0,  0,  -1,  -11,  -27,  -34
1134416, 1710334366, "2024/3/13 12:52:46",  5,  -59,  1004,  0,  0,  -1,  -11,  -25,  -33
1134616, 1710334366, "2024/3/13 12:52:46",  5,  -58,  1003,  0,  0,  -1,  -12,  -27,  -34
1134816, 1710334366, "2024/3/13 12:52:46",  8,  -63,  1005,  0,  0,  -1,  -11,  -25,  -34
1135016, 1710334366, "2024/3/13 12:52:46",  9,  -59,  1005,  0,  0,  0,  -11,  -25,  -34
1135216, 1710334366, "2024/3/13 12:52:46",  8,  -53,  1002,  0,  0,  -1,  -12,  -27,  -35
1135416, 1710334367, "2024/3/13 12:52:47",  9,  -59,  1005,  0,  0,  0,  -10,  -26,  -34
1135616, 1710334367, "2024/3/13 12:52:47",  6,  -59,  1003,  0,  0,  -1,  -13,  -26,  -36
1135816, 1710334367, "2024/3/13 12:52:47",  8,  -62,  1003,  0,  0,  0,  -12,  -25,  -35
1136016, 1710334367, "2024/3/13 12:52:47",  7,  -57,  1004,  0,  -1,  -1,  -11,  -26,  -33
1136216, 1710334367, "2024/3/13 12:52:47",  8,  -54,  1005,  0,  0,  0,  -10,  -28,  -34
1136416, 1710334368, "2024/3/13 12:52:48",  4,  -57,  1005,  0,  0,  0,  -11,  -28,  -36
1136616, 1710334368, "2024/3/13 12:52:48",  1,  -62,  1007,  0,  0,  -1,  -10,  -28,  -35
1136816, 1710334368, "2024/3/13 12:52:48",  4,  -55,  1005,  0,  -1,  0,  -11,  -27,  -34
1137016, 1710334368, "2024/3/13 12:52:48",  8,  -58,  1001,  0,  0,  -1,  -10,  -27,  -33
1137216, 1710334368, "2024/3/13 12:52:48",  4,  -60,  1004,  0,  0,  0,  -10,  -26,  -34
1137416, 1710334369, "2024/3/13 12:52:49",  9,  -63,  1000,  0,  0,  0,  -11,  -28,  -34
1137616, 1710334369, "2024/3/13 12:52:49",  5,  -59,  1006,  0,  0,  0,  -12,  -25,  -35
1137816, 1710334369, "2024/3/13 12:52:49",  3,  -59,  1000,  0,  0,  0,  -12,  -28,  -34
1138016, 1710334369, "2024/3/13 12:52:49",  5,  -66,  1005,  0,  0,  0,  -11,  -27,  -33
1138216, 1710334369, "2024/3/13 12:52:49",  7,  -60,  1002,  0,  -1,  0,  -10,  -27,  -35
1138416, 1710334370, "2024/3/13 12:52:50",  8,  -49,  1006,  0,  0,  -1,  -11,  -28,  -35
1138616, 1710334370, "2024/3/13 12:52:50",  4,  -54,  1007,  0,  0,  -1,  -12,  -26,  -34
1138816, 1710334370, "2024/3/13 12:52:50",  3,  -64,  1006,  0,  0,  -1,  -12,  -26,  -37
1139016, 1710334370, "2024/3/13 12:52:50",  1,  -56,  1003,  0,  0,  -1,  -10,  -25,  -35
1139216, 1710334370, "2024/3/13 12:52:50",  5,  -61,  1008,  0,  0,  -1,  -9,  -27,  -34
1139416, 1710334371, "2024/3/13 12:52:51",  5,  -64,  1004,  0,  0,  0,  -11,  -27,  -33
1139616, 1710334371, "2024/3/13 12:52:51",  0,  -65,  1004,  0,  0,  0,  -10,  -26,  -35
1139816, 1710334371, "2024/3/13 12:52:51",  9,  -60,  1003,  0,  0,  0,  -11,  -28,  -34
1140016, 1710334371, "2024/3/13 12:52:51",  8,  -58,  1003,  0,  0,  -1,  -11,  -27,  -37
1140216, 1710334371, "2024/3/13 12:52:51",  8,  -55,  1007,  0,  0,  0,  -13,  -27,  -35
1140416, 1710334372, "2024/3/13 12:52:52",  7,  -55,  1004,  0,  0,  -1,  -11,  -28,  -34
1140616, 1710334372, "2024/3/13 12:52:52",  5,  -60,  1009,  0,  0,  0,  -10,  -25,  -35
1140816, 1710334372, "2024/3/13 12:52:52",  6,  -61,  1005,  0,  0,  0,  -10,  -28,  -35
1141016, 1710334372, "2024/3/13 12:52:52",  7,  -51,  1001,  0,  0,  -1,  -11,  -27,  -36
1141216, 1710334372, "2024/3/13 12:52:52",  7,  -58,  1001,  0,  0,  0,  -11,  -25,  -35
1141416, 1710334373, "2024/3/13 12:52:53",  5,  -56,  1002,  0,  0,  0,  -10,  -27,  -34
1141616, 1710334373, "2024/3/13 12:52:53",  5,  -57,  1005,  0,  0,  -1,  -11,  -27,  -36
1141816, 1710334373, "2024/3/13 12:52:53",  10,  -57,  1005,  0,  0,  0,  -11,  -28,  -33
1142016, 1710334373, "2024/3/13 12:52:53",  6,  -63,  1004,  0,  0,  0,  -11,  -27,  -34
1142216, 1710334373, "2024/3/13 12:52:53",  5,  -57,  1006,  0,  0,  0,  -11,  -27,  -33
1142416, 1710334374, "2024/3/13 12:52:54",  8,  -56,  1002,  0,  0,  -1,  -11,  -28,  -35
1142616, 1710334374, "2024/3/13 12:52:54",  6,  -63,  1002,  0,  0,  -1,  -11,  -27,  -34
1142816, 1710334374, "2024/3/13 12:52:54",  3,  -60,  1004,  0,  0,  -1,  -11,  -26,  -35
1143016, 1710334374, "2024/3/13 12:52:54",  5,  -46,  1005,  0,  -1,  -1,  -10,  -26,  -36
1143216, 1710334374, "2024/3/13 12:52:54",  9,  -57,  1000,  0,  -1,  -1,  -11,  -27,  -34
1143416, 1710334375, "2024/3/13 12:52:55",  10,  -60,  1001,  0,  0,  -1,  -10,  -26,  -35
1143616, 1710334375, "2024/3/13 12:52:55",  6,  -59,  1001,  0,  -1,  -1,  -9,  -27,  -34
1143816, 1710334375, "2024/3/13 12:52:55",  8,  -59,  1003,  0,  0,  0,  -10,  -26,  -34
1144016, 1710334375, "2024/3/13 12:52:55",  0,  -57,  1002,  0,  0,  0,  -11,  -27,  -34
1144216, 1710334375, "2024/3/13 12:52:55",  2,  -56,  1004,  0,  0,  -1,  -12,  -27,  -35
1144416, 1710334376, "2024/3/13 12:52:56",  3,  -62,  1005,  0,  0,  0,  -10,  -27,  -37
1144616, 1710334376, "2024/3/13 12:52:56",  7,  -59,  1005,  0,  0,  0,  -11,  -25,  -35
1144816, 1710334376, "2024/3/13 12:52:56",  2,  -58,  1004,  0,  0,  -1,  -10,  -25,  -34
1145016, 1710334376, "2024/3/13 12:52:56",  4,  -56,  1007,  0,  0,  0,  -12,  -26,  -34
1145216, 1710334376, "2024/3/13 12:52:56",  13,  -61,  1004,  0,  0,  0,  -11,  -26,  -36
1145416, 1710334377, "2024/3/13 12:52:57",  2,  -57,  1000,  0,  -1,  -1,  -11,  -27,  -35
1145616, 1710334377, "2024/3/13 12:52:57",  7,  -51,  1005,  0,  0,  0,  -12,  -27,  -36
1145816, 1710334377, "2024/3/13 12:52:57",  3,  -61,  1004,  0,  0,  0,  -12,  -27,  -36
1146016, 1710334377, "2024/3/13 12:52:57",  2,  -61,  1003,  0,  -1,  -1,  -11,  -26,  -35
1146216, 1710334377, "2024/3/13 12:52:57",  10,  -56,  1007,  0,  0,  0,  -12,  -26,  -34
1146416, 1710334378, "2024/3/13 12:52:58",  3,  -58,  1002,  0,  0,  -1,  -10,  -27,  -35
1146616, 1710334378, "2024/3/13 12:52:58",  4,  -62,  1003,  0,  0,  -1,  -10,  -27,  -34
1146816, 1710334378, "2024/3/13 12:52:58",  7,  -59,  1002,  0,  0,  0,  -11,  -26,  -35
1147016, 1710334378, "2024/3/13 12:52:58",  7,  -62,  1002,  0,  0,  0,  -12,  -26,  -36
1147216, 1710334378, "2024/3/13 12:52:58",  6,  -60,  1001,  0,  0,  -1,  -10,  -27,  -36
1147416, 1710334379, "2024/3/13 12:52:59",  5,  -57,  1007,  0,  0,  0,  -11,  -25,  -35
1147616, 1710334379, "2024/3/13 12:52:59",  8,  -63,  1003,  0,  0,  -1,  -11,  -27,  -35
1147816, 1710334379, "2024/3/13 12:52:59",  4,  -62,  1002,  0,  0,  -1,  -10,  -27,  -34
1148016, 1710334379, "2024/3/13 12:52:59",  4,  -59,  1005,  0,  0,  -1,  -12,  -26,  -35
1148216, 1710334379, "2024/3/13 12:52:59",  6,  -60,  1003,  0,  -1,  -1,  -10,  -27,  -34
1148416, 1710334380, "2024/3/13 12:53:0",  6,  -62,  1006,  0,  0,  -1,  -10,  -27,  -35
1148616, 1710334380, "2024/3/13 12:53:0",  2,  -65,  1005,  0,  -1,  -1,  -10,  -26,  -35
1148816, 1710334380, "2024/3/13 12:53:0",  4,  -60,  1002,  0,  0,  -1,  -10,  -27,  -34
1149016, 1710334380, "2024/3/13 12:53:0",  9,  -57,  1005,  0,  0,  0,  -11,  -25,  -36
1149216, 1710334380, "2024/3/13 12:53:0",  13,  -56,  1003,  0,  0,  -1,  -11,  -26,  -35
1149416, 1710334381, "2024/3/13 12:53:1",  5,  -54,  1004,  0,  0,  -1,  -11,  -28,  -34
1149616, 1710334381, "2024/3/13 12:53:1",  5,  -57,  1002,  0,  0,  -1,  -11,  -26,  -34
1149816, 1710334381, "2024/3/13 12:53:1",  6,  -62,  1003,  0,  0,  -1,  -9,  -27,  -34
1150016, 1710334381, "2024/3/13 12:53:1",  6,  -64,  1005,  0,  0,  -1,  -11,  -28,  -36
1150216, 1710334381, "2024/3/13 12:53:1",  2,  -54,  1002,  0,  0,  0,  -12,  -27,  -36
1150416, 1710334382, "2024/3/13 12:53:2",  10,  -57,  1003,  0,  0,  0,  -11,  -27,  -35
1150616, 1710334382, "2024/3/13 12:53:2",  2,  -58,  1005,  0,  0,  0,  -11,  -25,  -36
1150816, 1710334382, "2024/3/13 12:53:2",  6,  -61,  1003,  0,  0,  0,  -11,  -27,  -35
1151016, 1710334382, "2024/3/13 12:53:2",  3,  -55,  1002,  0,  0,  0,  -11,  -26,  -33
1151216, 1710334382, "2024/3/13 12:53:2",  1,  -59,  1004,  0,  0,  -1,  -10,  -27,  -36
1151416, 1710334383, "2024/3/13 12:53:3",  8,  -59,  1002,  0,  -1,  -1,  -10,  -26,  -35
1151616, 1710334383, "2024/3/13 12:53:3",  7,  -60,  1001,  0,  0,  0,  -11,  -27,  -34
1151816, 1710334383, "2024/3/13 12:53:3",  4,  -64,  1000,  0,  0,  -1,  -11,  -27,  -36
1152016, 1710334383, "2024/3/13 12:53:3",  8,  -56,  1002,  0,  0,  -1,  -10,  -28,  -35
1152216, 1710334383, "2024/3/13 12:53:3",  8,  -59,  1002,  0,  0,  -1,  -11,  -27,  -35
1152416, 1710334384, "2024/3/13 12:53:4",  8,  -61,  1002,  0,  0,  0,  -10,  -28,  -35
1152616, 1710334384, "2024/3/13 12:53:4",  1,  -62,  1006,  0,  0,  -1,  -9,  -27,  -33
1152816, 1710334384, "2024/3/13 12:53:4",  5,  -58,  1005,  0,  0,  -1,  -11,  -26,  -34
1153016, 1710334384, "2024/3/13 12:53:4",  9,  -61,  1006,  0,  0,  -1,  -11,  -25,  -34
1153216, 1710334384, "2024/3/13 12:53:4",  5,  -53,  1005,  0,  0,  -1,  -11,  -27,  -36
1153416, 1710334385, "2024/3/13 12:53:5",  5,  -62,  1003,  0,  0,  -1,  -11,  -26,  -34
1153616, 1710334385, "2024/3/13 12:53:5",  9,  -60,  1003,  0,  0,  0,  -11,  -26,  -36
1153816, 1710334385, "2024/3/13 12:53:5",  7,  -59,  1002,  0,  0,  -1,  -10,  -25,  -36
1154016, 1710334385, "2024/3/13 12:53:5",  7,  -53,  1004,  0,  0,  0,  -11,  -27,  -34
1154216, 1710334385, "2024/3/13 12:53:5",  5,  -62,  1006,  0,  0,  0,  -11,  -27,  -34
1154416, 1710334386, "2024/3/13 12:53:6",  2,  -63,  1001,  0,  0,  -1,  -12,  -28,  -33
1154616, 1710334386, "2024/3/13 12:53:6",  3,  -56,  1003,  0,  0,  0,  -11,  -26,  -34
1154816, 1710334386, "2024/3/13 12:53:6",  5,  -63,  1008,  0,  0,  -1,  -10,  -26,  -34
1155016, 1710334386, "2024/3/13 12:53:6",  6,  -54,  1003,  0,  0,  0,  -10,  -26,  -36
1155216, 1710334386, "2024/3/13 12:53:6",  4,  -57,  1004,  0,  0,  0,  -11,  -28,  -34
1155416, 1710334387, "2024/3/13 12:53:7",  3,  -61,  1002,  0,  0,  0,  -12,  -28,  -35
1155616, 1710334387, "2024/3/13 12:53:7",  7,  -59,  1007,  0,  0,  0,  -12,  -27,  -36
1155816, 1710334387, "2024/3/13 12:53:7",  5,  -57,  1006,  0,  -1,  -1,  -11,  -27,  -35
1156016, 1710334387, "2024/3/13 12:53:7",  3,  -58,  1004,  0,  0,  0,  -11,  -26,  -35
1156216, 1710334387, "2024/3/13 12:53:7",  7,  -58,  1003,  0,  0,  -1,  -11,  -25,  -34
1156416, 1710334388, "2024/3/13 12:53:8",  3,  -61,  1006,  0,  0,  0,  -13,  -28,  -34
1156616, 1710334388, "2024/3/13 12:53:8",  3,  -57,  1004,  0,  0,  -1,  -11,  -27,  -34
1156816, 1710334388, "2024/3/13 12:53:8",  7,  -57,  1004,  0,  0,  -1,  -10,  -25,  -35
1157016, 1710334388, "2024/3/13 12:53:8",  7,  -56,  1000,  0,  0,  -1,  -11,  -25,  -36
1157216, 1710334388, "2024/3/13 12:53:8",  5,  -58,  1003,  0,  0,  -1,  -11,  -28,  -33
1157416, 1710334389, "2024/3/13 12:53:9",  3,  -55,  1007,  0,  0,  0,  -11,  -25,  -36
1157616, 1710334389, "2024/3/13 12:53:9",  6,  -57,  1004,  0,  0,  -1,  -11,  -28,  -33
1157816, 1710334389, "2024/3/13 12:53:9",  5,  -63,  1005,  0,  0,  0,  -12,  -26,  -34
1158016, 1710334389, "2024/3/13 12:53:9",  4,  -54,  1001,  0,  0,  0,  -11,  -27,  -36
1158216, 1710334389, "2024/3/13 12:53:9",  10,  -58,  1002,  0,  -1,  -1,  -11,  -27,  -36
1158416, 1710334390, "2024/3/13 12:53:10",  7,  -60,  1003,  0,  0,  0,  -10,  -26,  -34
1158616, 1710334390, "2024/3/13 12:53:10",  5,  -64,  1005,  0,  0,  -1,  -11,  -26,  -35
1158816, 1710334390, "2024/3/13 12:53:10",  7,  -56,  1005,  0,  0,  -1,  -12,  -25,  -36
1159016, 1710334390, "2024/3/13 12:53:10",  0,  -64,  1005,  0,  0,  -1,  -10,  -27,  -34
1159216, 1710334390, "2024/3/13 12:53:10",  6,  -58,  1004,  0,  0,  -1,  -9,  -26,  -34
1159416, 1710334391, "2024/3/13 12:53:11",  6,  -59,  1006,  0,  0,  0,  -10,  -27,  -35
1159616, 1710334391, "2024/3/13 12:53:11",  6,  -58,  1005,  0,  0,  -1,  -11,  -24,  -34
1159816, 1710334391, "2024/3/13 12:53:11",  6,  -56,  1004,  0,  0,  -1,  -11,  -26,  -34
1160016, 1710334391, "2024/3/13 12:53:11",  7,  -61,  1003,  0,  0,  -1,  -12,  -25,  -34
1160216, 1710334391, "2024/3/13 12:53:11",  7,  -55,  1006,  0,  0,  0,  -11,  -26,  -34
1160416, 1710334392, "2024/3/13 12:53:12",  4,  -57,  1006,  0,  -1,  0,  -11,  -25,  -36
1160616, 1710334392, "2024/3/13 12:53:12",  5,  -60,  1009,  0,  -1,  0,  -11,  -27,  -34
1160816, 1710334392, "2024/3/13 12:53:12",  3,  -62,  1002,  0,  0,  0,  -11,  -27,  -36
1161016, 1710334392, "2024/3/13 12:53:12",  4,  -59,  1006,  0,  0,  -1,  -10,  -25,  -34
1161216, 1710334392, "2024/3/13 12:53:12",  5,  -61,  1001,  0,  0,  0,  -10,  -27,  -34
1161416, 1710334393, "2024/3/13 12:53:13",  2,  -60,  1002,  0,  0,  -1,  -10,  -26,  -31
1161616, 1710334393, "2024/3/13 12:53:13",  6,  -61,  1004,  0,  0,  0,  -11,  -26,  -35
1161816, 1710334393, "2024/3/13 12:53:13",  4,  -62,  1003,  0,  -1,  -1,  -10,  -27,  -36
1162016, 1710334393, "2024/3/13 12:53:13",  4,  -61,  1004,  0,  0,  -1,  -11,  -25,  -36
1162216, 1710334393, "2024/3/13 12:53:13",  1,  -53,  1002,  0,  0,  -1,  -11,  -26,  -35
1162416, 1710334394, "2024/3/13 12:53:14",  3,  -59,  1004,  0,  -1,  -1,  -10,  -25,  -35
1162616, 1710334394, "2024/3/13 12:53:14",  4,  -57,  1004,  0,  -1,  -1,  -11,  -26,  -36
1162816, 1710334394, "2024/3/13 12:53:14",  6,  -52,  1004,  0,  0,  -1,  -8,  -26,  -36
1163016, 1710334394, "2024/3/13 12:53:14",  2,  -59,  1002,  0,  0,  0,  -11,  -27,  -34
1163216, 1710334394, "2024/3/13 12:53:14",  4,  -55,  1004,  0,  0,  0,  -13,  -27,  -36
1163416, 1710334395, "2024/3/13 12:53:15",  3,  -55,  1006,  0,  0,  -1,  -11,  -27,  -36
1163616, 1710334395, "2024/3/13 12:53:15",  10,  -57,  1002,  0,  0,  -1,  -10,  -27,  -34
1163816, 1710334395, "2024/3/13 12:53:15",  1,  -57,  1003,  0,  0,  -1,  -10,  -28,  -35
1164016, 1710334395, "2024/3/13 12:53:15",  6,  -57,  1007,  0,  0,  -1,  -12,  -26,  -35
1164216, 1710334395, "2024/3/13 12:53:15",  6,  -58,  1004,  0,  0,  0,  -10,  -27,  -35
1164416, 1710334396, "2024/3/13 12:53:16",  5,  -61,  1000,  0,  0,  0,  -11,  -27,  -35
1164616, 1710334396, "2024/3/13 12:53:16",  -2,  -60,  995,  0,  -1,  -1,  -11,  -25,  -36
1164816, 1710334396, "2024/3/13 12:53:16",  3,  -61,  1003,  0,  0,  -1,  -11,  -26,  -36
1165016, 1710334396, "2024/3/13 12:53:16",  6,  -64,  1005,  0,  0,  -1,  -11,  -26,  -34
1165216, 1710334396, "2024/3/13 12:53:16",  2,  -58,  1004,  0,  0,  -1,  -11,  -26,  -35
1165416, 1710334397, "2024/3/13 12:53:17",  7,  -58,  1005,  0,  -1,  -1,  -10,  -27,  -34
1165616, 1710334397, "2024/3/13 12:53:17",  18,  -58,  1003,  0,  0,  0,  -11,  -27,  -34
1165816, 1710334397, "2024/3/13 12:53:17",  5,  -58,  998,  0,  0,  -1,  -11,  -28,  -34
1166016, 1710334397, "2024/3/13 12:53:17",  4,  -54,  1006,  0,  -1,  -1,  -11,  -27,  -36
1166216, 1710334397, "2024/3/13 12:53:17",  4,  -56,  1005,  0,  -1,  -1,  -11,  -28,  -36
1166416, 1710334398, "2024/3/13 12:53:18",  3,  -56,  999,  0,  0,  -1,  -12,  -27,  -35
1166616, 1710334398, "2024/3/13 12:53:18",  2,  -59,  1004,  0,  0,  0,  -11,  -27,  -36
1166816, 1710334398, "2024/3/13 12:53:18",  1,  -55,  1004,  0,  0,  0,  -11,  -26,  -36
1167016, 1710334398, "2024/3/13 12:53:18",  0,  -64,  1005,  0,  0,  0,  -11,  -25,  -36
1167216, 1710334398, "2024/3/13 12:53:18",  4,  -61,  1001,  0,  0,  0,  -9,  -26,  -37
1167416, 1710334399, "2024/3/13 12:53:19",  10,  -55,  1002,  0,  0,  0,  -11,  -27,  -35
1167616, 1710334399, "2024/3/13 12:53:19",  2,  -57,  1003,  0,  -1,  -1,  -11,  -25,  -36
1167816, 1710334399, "2024/3/13 12:53:19",  7,  -57,  1003,  0,  0,  0,  -9,  -26,  -36
1168016, 1710334399, "2024/3/13 12:53:19",  2,  -55,  1000,  0,  -1,  -1,  -9,  -25,  -35
1168216, 1710334399, "2024/3/13 12:53:19",  0,  -63,  1006,  0,  0,  -1,  -10,  -27,  -36
1168416, 1710334400, "2024/3/13 12:53:20",  8,  -63,  1005,  0,  0,  0,  -11,  -27,  -34
1168616, 1710334400, "2024/3/13 12:53:20",  8,  -58,  1004,  0,  0,  0,  -9,  -26,  -36
1168816, 1710334400, "2024/3/13 12:53:20",  6,  -58,  1005,  0,  0,  -1,  -10,  -27,  -36
1169016, 1710334400, "2024/3/13 12:53:20",  3,  -59,  1004,  0,  0,  -1,  -11,  -26,  -34
1169216, 1710334400, "2024/3/13 12:53:20",  3,  -63,  1005,  0,  0,  -1,  -11,  -26,  -36
1169416, 1710334401, "2024/3/13 12:53:21",  5,  -57,  1004,  0,  0,  0,  -11,  -25,  -36
1169616, 1710334401, "2024/3/13 12:53:21",  2,  -57,  1004,  0,  0,  -1,  -11,  -27,  -35
1169816, 1710334401, "2024/3/13 12:53:21",  8,  -57,  1002,  0,  0,  -1,  -11,  -27,  -35
1170016, 1710334401, "2024/3/13 12:53:21",  6,  -60,  1005,  0,  0,  0,  -10,  -27,  -36
1170216, 1710334401, "2024/3/13 12:53:21",  5,  -60,  1005,  0,  0,  -1,  -11,  -26,  -37
1170416, 1710334402, "2024/3/13 12:53:22",  1,  -59,  1004,  0,  0,  0,  -11,  -27,  -36
1170616, 1710334402, "2024/3/13 12:53:22",  4,  -58,  1003,  0,  0,  0,  -10,  -26,  -36
1170816, 1710334402, "2024/3/13 12:53:22",  8,  -64,  1000,  0,  0,  0,  -11,  -26,  -36
1171016, 1710334402, "2024/3/13 12:53:22",  -1,  -63,  1001,  0,  0,  -1,  -9,  -26,  -36
1171216, 1710334402, "2024/3/13 12:53:22",  7,  -60,  1003,  0,  0,  0,  -10,  -26,  -34
1171416, 1710334403, "2024/3/13 12:53:23",  0,  -53,  1003,  0,  0,  -1,  -11,  -27,  -36
1171616, 1710334403, "2024/3/13 12:53:23",  2,  -61,  1003,  0,  0,  -1,  -11,  -26,  -37
1171816, 1710334403, "2024/3/13 12:53:23",  0,  -57,  1001,  0,  0,  -1,  -11,  -25,  -35
1172016, 1710334403, "2024/3/13 12:53:23",  4,  -53,  1004,  0,  0,  -1,  -11,  -28,  -35
1172216, 1710334403, "2024/3/13 12:53:23",  6,  -56,  1003,  0,  0,  0,  -12,  -26,  -36
1172416, 1710334404, "2024/3/13 12:53:24",  6,  -57,  1001,  0,  0,  -1,  -12,  -25,  -35
1172616, 1710334404, "2024/3/13 12:53:24",  2,  -60,  1006,  0,  0,  0,  -11,  -27,  -35
1172816, 1710334404, "2024/3/13 12:53:24",  7,  -57,  1006,  0,  0,  -1,  -12,  -26,  -36
1173016, 1710334404, "2024/3/13 12:53:24",  2,  -56,  1000,  0,  0,  -1,  -8,  -26,  -36
1173216, 1710334404, "2024/3/13 12:53:24",  1,  -57,  1005,  0,  0,  -1,  -12,  -26,  -35
1173416, 1710334405, "2024/3/13 12:53:25",  4,  -59,  1005,  0,  0,  -1,  -11,  -26,  -34
1173616, 1710334405, "2024/3/13 12:53:25",  5,  -55,  1006,  0,  0,  -1,  -11,  -27,  -36
1173816, 1710334405, "2024/3/13 12:53:25",  1,  -62,  1003,  0,  0,  -1,  -11,  -25,  -38
1174016, 1710334405, "2024/3/13 12:53:25",  12,  -59,  1010,  0,  0,  -1,  -11,  -25,  -35
1174216, 1710334405, "2024/3/13 12:53:25",  4,  -57,  1005,  0,  0,  -1,  -11,  -27,  -36
1174416, 1710334406, "2024/3/13 12:53:26",  4,  -58,  1004,  0,  0,  0,  -10,  -26,  -35
1174616, 1710334406, "2024/3/13 12:53:26",  5,  -64,  1003,  0,  0,  0,  -11,  -27,  -36
1174816, 1710334406, "2024/3/13 12:53:26",  4,  -57,  1001,  0,  0,  -1,  -9,  -25,  -35
1175016, 1710334406, "2024/3/13 12:53:26",  5,  -58,  1007,  0,  0,  -1,  -12,  -26,  -35
1175216, 1710334406, "2024/3/13 12:53:26",  1,  -61,  1002,  0,  0,  0,  -11,  -26,  -36
1175416, 1710334407, "2024/3/13 12:53:27",  1,  -58,  1001,  0,  0,  0,  -11,  -27,  -35
1175616, 1710334407, "2024/3/13 12:53:27",  4,  -55,  1004,  0,  -1,  -1,  -12,  -26,  -34
1175816, 1710334407, "2024/3/13 12:53:27",  8,  -58,  1004,  0,  0,  -1,  -11,  -26,  -35
1176016, 1710334407, "2024/3/13 12:53:27",  4,  -57,  1007,  0,  0,  0,  -11,  -25,  -36
1176216, 1710334407, "2024/3/13 12:53:27",  9,  -56,  1006,  0,  0,  -1,  -11,  -26,  -36
1176416, 1710334408, "2024/3/13 12:53:28",  4,  -60,  1002,  0,  0,  0,  -11,  -26,  -35
1176616, 1710334408, "2024/3/13 12:53:28",  3,  -57,  1006,  0,  0,  0,  -12,  -26,  -35
1176816, 1710334408, "2024/3/13 12:53:28",  4,  -56,  1005,  0,  0,  0,  -10,  -26,  -36
1177016, 1710334408, "2024/3/13 12:53:28",  5,  -57,  1005,  0,  0,  -1,  -13,  -27,  -36
1177216, 1710334408, "2024/3/13 12:53:28",  8,  -53,  1004,  0,  0,  -1,  -11,  -25,  -36
1177416, 1710334409, "2024/3/13 12:53:29",  6,  -59,  1003,  0,  0,  0,  -12,  -26,  -37
1177616, 1710334409, "2024/3/13 12:53:29",  9,  -57,  1006,  0,  0,  0,  -10,  -25,  -36
1177816, 1710334409, "2024/3/13 12:53:29",  5,  -56,  1000,  0,  0,  -1,  -11,  -26,  -36
1178016, 1710334409, "2024/3/13 12:53:29",  8,  -51,  1001,  0,  0,  -1,  -10,  -25,  -37
1178216, 1710334409, "2024/3/13 12:53:29",  6,  -59,  1008,  0,  -1,  -1,  -11,  -26,  -36
1178416, 1710334410, "2024/3/13 12:53:30",  6,  -57,  1003,  0,  0,  -1,  -10,  -25,  -36
1178616, 1710334410, "2024/3/13 12:53:30",  9,  -55,  1003,  0,  0,  0,  -10,  -26,  -36
1178816, 1710334410, "2024/3/13 12:53:30",  5,  -55,  1011,  0,  0,  -1,  -10,  -27,  -37
1179016, 1710334410, "2024/3/13 12:53:30",  3,  -60,  1005,  0,  0,  -1,  -10,  -25,  -34
1179216, 1710334410, "2024/3/13 12:53:30",  6,  -55,  1006,  0,  0,  0,  -12,  -26,  -36
1179416, 1710334411, "2024/3/13 12:53:31",  5,  -53,  1001,  0,  -1,  -1,  -10,  -26,  -36
1179616, 1710334411, "2024/3/13 12:53:31",  6,  -54,  1004,  0,  0,  0,  -11,  -26,  -36
1179816, 1710334411, "2024/3/13 12:53:31",  4,  -56,  1005,  0,  0,  -1,  -13,  -26,  -35
1180016, 1710334411, "2024/3/13 12:53:31",  0,  -55,  1005,  0,  0,  -1,  -12,  -27,  -35
1180216, 1710334411, "2024/3/13 12:53:31",  5,  -56,  1005,  0,  -1,  -1,  -12,  -25,  -37
1180416, 1710334412, "2024/3/13 12:53:32",  6,  -57,  1003,  0,  0,  0,  -13,  -28,  -37
1180616, 1710334412, "2024/3/13 12:53:32",  2,  -59,  1006,  0,  0,  -1,  -12,  -27,  -36
1180816, 1710334412, "2024/3/13 12:53:32",  6,  -57,  1008,  0,  0,  -1,  -11,  -27,  -34
1181016, 1710334412, "2024/3/13 12:53:32",  8,  -58,  1003,  0,  0,  -1,  -11,  -27,  -37
1181216, 1710334412, "2024/3/13 12:53:32",  6,  -57,  1007,  0,  0,  0,  -9,  -27,  -37
1181416, 1710334413, "2024/3/13 12:53:33",  0,  -58,  1001,  0,  0,  0,  -10,  -26,  -37
1181616, 1710334413, "2024/3/13 12:53:33",  5,  -57,  1003,  0,  -1,  -1,  -12,  -26,  -35
1181816, 1710334413, "2024/3/13 12:53:33",  8,  -61,  1005,  0,  0,  -1,  -11,  -26,  -35
1182016, 1710334413, "2024/3/13 12:53:33",  6,  -57,  1004,  0,  0,  -1,  -12,  -28,  -36
1182216, 1710334413, "2024/3/13 12:53:33",  11,  -57,  1005,  0,  0,  -1,  -11,  -25,  -36
1182416, 1710334414, "2024/3/13 12:53:34",  2,  -58,  1000,  0,  0,  -1,  -11,  -27,  -34
1182616, 1710334414, "2024/3/13 12:53:34",  4,  -58,  1003,  1,  0,  -1,  -11,  -27,  -35
1182816, 1710334414, "2024/3/13 12:53:34",  5,  -63,  1005,  0,  0,  -1,  -11,  -27,  -36
1183016, 1710334414, "2024/3/13 12:53:34",  7,  -55,  1004,  0,  0,  -1,  -11,  -25,  -35
1183216, 1710334414, "2024/3/13 12:53:34",  3,  -53,  1002,  0,  -1,  -1,  -12,  -27,  -36
1183416, 1710334415, "2024/3/13 12:53:35",  7,  -59,  1003,  0,  0,  -1,  -11,  -26,  -36
1183616, 1710334415, "2024/3/13 12:53:35",  2,  -61,  1004,  0,  0,  -1,  -11,  -26,  -35
1183816, 1710334415, "2024/3/13 12:53:35",  10,  -59,  1001,  0,  0,  -1,  -10,  -25,  -34
1184016, 1710334415, "2024/3/13 12:53:35",  2,  -58,  1004,  0,  0,  -1,  -12,  -27,  -35
1184216, 1710334415, "2024/3/13 12:53:35",  2,  -54,  1003,  0,  0,  0,  -10,  -27,  -34
1184416, 1710334416, "2024/3/13 12:53:36",  5,  -57,  1001,  0,  0,  -1,  -10,  -27,  -35
1184616, 1710334416, "2024/3/13 12:53:36",  5,  -59,  1002,  0,  0,  0,  -11,  -27,  -36
1184816, 1710334416, "2024/3/13 12:53:36",  6,  -58,  1003,  0,  0,  -1,  -11,  -25,  -36
1185016, 1710334416, "2024/3/13 12:53:36",  6,  -60,  1005,  0,  0,  0,  -10,  -27,  -36
1185216, 1710334416, "2024/3/13 12:53:36",  6,  -57,  1003,  0,  0,  0,  -9,  -26,  -35
1185416, 1710334417, "2024/3/13 12:53:37",  5,  -54,  1001,  0,  0,  -1,  -11,  -25,  -36
1185616, 1710334417, "2024/3/13 12:53:37",  7,  -58,  1001,  0,  0,  0,  -12,  -27,  -36
1185816, 1710334417, "2024/3/13 12:53:37",  8,  -49,  1011,  0,  0,  0,  -12,  -25,  -36
1186016, 1710334417, "2024/3/13 12:53:37",  8,  -54,  1001,  0,  0,  -1,  -10,  -26,  -37
1186216, 1710334417, "2024/3/13 12:53:37",  3,  -56,  1002,  0,  0,  -1,  -9,  -27,  -36
1186416, 1710334418, "2024/3/13 12:53:38",  5,  -59,  1002,  0,  0,  -1,  -11,  -25,  -36
1186616, 1710334418, "2024/3/13 12:53:38",  10,  -61,  1002,  0,  0,  -1,  -13,  -27,  -35
1186816, 1710334418, "2024/3/13 12:53:38",  6,  -58,  1004,  0,  -1,  -1,  -11,  -26,  -36
1187016, 1710334418, "2024/3/13 12:53:38",  5,  -54,  1006,  0,  0,  0,  -12,  -26,  -35
1187216, 1710334418, "2024/3/13 12:53:38",  9,  -62,  1002,  0,  0,  -1,  -11,  -25,  -36
1187416, 1710334419, "2024/3/13 12:53:39",  6,  -59,  1007,  0,  0,  -1,  -12,  -27,  -36
1187616, 1710334419, "2024/3/13 12:53:39",  5,  -55,  1005,  0,  0,  -1,  -11,  -26,  -37
1187816, 1710334419, "2024/3/13 12:53:39",  5,  -57,  1006,  0,  0,  0,  -12,  -26,  -36
1188016, 1710334419, "2024/3/13 12:53:39",  3,  -60,  1006,  0,  0,  -1,  -10,  -27,  -36
1188216, 1710334419, "2024/3/13 12:53:39",  6,  -61,  1006,  0,  0,  0,  -11,  -25,  -36
1188416, 1710334420, "2024/3/13 12:53:40",  3,  -57,  1005,  0,  0,  -1,  -9,  -27,  -35
1188616, 1710334420, "2024/3/13 12:53:40",  5,  -60,  1001,  0,  0,  0,  -13,  -27,  -35
1188816, 1710334420, "2024/3/13 12:53:40",  -1,  -54,  1004,  0,  -1,  0,  -11,  -27,  -36
1189016, 1710334420, "2024/3/13 12:53:40",  3,  -56,  1003,  0,  -1,  -1,  -11,  -26,  -36
1189216, 1710334420, "2024/3/13 12:53:40",  4,  -58,  1002,  0,  0,  0,  -11,  -27,  -36
1189416, 1710334421, "2024/3/13 12:53:41",  5,  -62,  1008,  0,  0,  0,  -10,  -27,  -35
1189616, 1710334421, "2024/3/13 12:53:41",  7,  -59,  1006,  0,  0,  0,  -10,  -26,  -35
1189816, 1710334421, "2024/3/13 12:53:41",  0,  -57,  1009,  0,  0,  0,  -10,  -27,  -35
1190016, 1710334421, "2024/3/13 12:53:41",  1,  -59,  1003,  0,  0,  -1,  -11,  -27,  -35
1190216, 1710334421, "2024/3/13 12:53:41",  2,  -58,  999,  0,  0,  -1,  -11,  -25,  -37
1190416, 1710334422, "2024/3/13 12:53:42",  4,  -55,  1003,  0,  0,  0,  -10,  -27,  -35
1190616, 1710334422, "2024/3/13 12:53:42",  8,  -59,  1007,  0,  -1,  -1,  -11,  -26,  -34
1190816, 1710334422, "2024/3/13 12:53:42",  2,  -60,  1004,  0,  0,  -1,  -10,  -27,  -36
1191016, 1710334422, "2024/3/13 12:53:42",  7,  -61,  1001,  0,  -1,  0,  -10,  -26,  -36
1191216, 1710334422, "2024/3/13 12:53:42",  5,  -63,  1007,  0,  0,  -1,  -11,  -27,  -35
1191416, 1710334423, "2024/3/13 12:53:43",  2,  -60,  1004,  0,  0,  0,  -10,  -26,  -36
1191616, 1710334423, "2024/3/13 12:53:43",  7,  -62,  1009,  0,  0,  -1,  -11,  -27,  -34
1191816, 1710334423, "2024/3/13 12:53:43",  5,  -60,  1003,  0,  0,  -1,  -10,  -26,  -36
1192016, 1710334423, "2024/3/13 12:53:43",  4,  -58,  1003,  0,  0,  -1,  -11,  -25,  -36
1192216, 1710334423, "2024/3/13 12:53:43",  5,  -57,  1004,  0,  0,  -1,  -11,  -27,  -36
1192416, 1710334424, "2024/3/13 12:53:44",  5,  -60,  1003,  1,  0,  -1,  -10,  -26,  -35
1192616, 1710334424, "2024/3/13 12:53:44",  4,  -59,  1005,  0,  0,  -1,  -11,  -27,  -36
1192816, 1710334424, "2024/3/13 12:53:44",  3,  -65,  1002,  0,  0,  0,  -11,  -27,  -35
1193016, 1710334424, "2024/3/13 12:53:44",  2,  -58,  1003,  0,  0,  0,  -12,  -26,  -35
1193216, 1710334424, "2024/3/13 12:53:44",  6,  -58,  1003,  0,  0,  -1,  -11,  -26,  -37
1193416, 1710334425, "2024/3/13 12:53:45",  4,  -64,  1003,  0,  0,  0,  -11,  -26,  -36
1193616, 1710334425, "2024/3/13 12:53:45",  5,  -59,  1003,  0,  0,  0,  -12,  -26,  -36
1193816, 1710334425, "2024/3/13 12:53:45",  8,  -56,  1000,  0,  0,  -1,  -11,  -25,  -36
1194016, 1710334425, "2024/3/13 12:53:45",  4,  -53,  1003,  0,  0,  -1,  -10,  -26,  -35
1194216, 1710334425, "2024/3/13 12:53:45",  1,  -53,  1001,  0,  -1,  0,  -11,  -28,  -35
1194416, 1710334426, "2024/3/13 12:53:46",  5,  -54,  1000,  0,  0,  -1,  -11,  -26,  -34
1194616, 1710334426, "2024/3/13 12:53:46",  2,  -52,  1006,  0,  -1,  -1,  -11,  -26,  -36
1194816, 1710334426, "2024/3/13 12:53:46",  5,  -55,  1002,  0,  0,  -1,  -11,  -27,  -36
1195016, 1710334426, "2024/3/13 12:53:46",  0,  -58,  1005,  0,  0,  0,  -12,  -25,  -35
1195216, 1710334426, "2024/3/13 12:53:46",  4,  -60,  1001,  0,  0,  0,  -12,  -26,  -36
1195416, 1710334427, "2024/3/13 12:53:47",  4,  -57,  1001,  0,  0,  -1,  -12,  -26,  -35
1195616, 1710334427, "2024/3/13 12:53:47",  5,  -60,  1002,  0,  0,  0,  -10,  -27,  -36
1195816, 1710334427, "2024/3/13 12:53:47",  4,  -60,  1004,  0,  0,  -1,  -11,  -27,  -35
1196016, 1710334427, "2024/3/13 12:53:47",  3,  -60,  1001,  0,  0,  0,  -11,  -27,  -36
1196216, 1710334427, "2024/3/13 12:53:47",  4,  -58,  1006,  0,  0,  0,  -10,  -24,  -35
1196416, 1710334428, "2024/3/13 12:53:48",  8,  -58,  1003,  0,  0,  -1,  -11,  -26,  -36
1196616, 1710334428, "2024/3/13 12:53:48",  2,  -59,  1003,  0,  0,  -1,  -11,  -26,  -36
1196816, 1710334428, "2024/3/13 12:53:48",  0,  -60,  996,  0,  -1,  -1,  -11,  -25,  -35
1197016, 1710334428, "2024/3/13 12:53:48",  5,  -57,  1001,  0,  0,  0,  -12,  -26,  -35
1197216, 1710334428, "2024/3/13 12:53:48",  -1,  -57,  1006,  0,  0,  0,  -9,  -26,  -36
1197416, 1710334429, "2024/3/13 12:53:49",  5,  -59,  1002,  0,  0,  0,  -10,  -27,  -37
1197616, 1710334429, "2024/3/13 12:53:49",  2,  -61,  1005,  0,  0,  -1,  -12,  -26,  -37
1197816, 1710334429, "2024/3/13 12:53:49",  5,  -59,  1000,  0,  0,  -1,  -10,  -26,  -35
1198016, 1710334429, "2024/3/13 12:53:49",  7,  -57,  1007,  0,  0,  0,  -11,  -28,  -35
1198216, 1710334429, "2024/3/13 12:53:49",  8,  -59,  1000,  0,  0,  -1,  -11,  -25,  -36
1198416, 1710334430, "2024/3/13 12:53:50",  2,  -54,  1002,  0,  0,  -1,  -10,  -27,  -34
1198616, 1710334430, "2024/3/13 12:53:50",  7,  -59,  1001,  0,  0,  0,  -11,  -26,  -35
1198816, 1710334430, "2024/3/13 12:53:50",  6,  -61,  1003,  0,  0,  -1,  -11,  -25,  -35
1199016, 1710334430, "2024/3/13 12:53:50",  5,  -61,  1006,  0,  0,  0,  -12,  -27,  -36
1199216, 1710334430, "2024/3/13 12:53:50",  -2,  -55,  1003,  0,  0,  0,  -8,  -27,  -37
1199416, 1710334431, "2024/3/13 12:53:51",  4,  -52,  1004,  0,  0,  -1,  -11,  -27,  -36
1199616, 1710334431, "2024/3/13 12:53:51",  10,  -58,  1004,  0,  0,  -1,  -11,  -26,  -36
1199816, 1710334431, "2024/3/13 12:53:51",  4,  -58,  1003,  0,  0,  -1,  -12,  -25,  -35
1200016, 1710334431, "2024/3/13 12:53:51",  5,  -59,  1004,  0,  0,  -1,  -11,  -25,  -36
1200216, 1710334431, "2024/3/13 12:53:51",  2,  -61,  1004,  0,  0,  0,  -12,  -25,  -37
1200416, 1710334432, "2024/3/13 12:53:52",  9,  -55,  1005,  0,  0,  0,  -10,  -25,  -36
1200616, 1710334432, "2024/3/13 12:53:52",  5,  -59,  1000,  0,  0,  -1,  -11,  -26,  -36
1200816, 1710334432, "2024/3/13 12:53:52",  5,  -61,  1004,  0,  0,  -1,  -11,  -27,  -36
1201016, 1710334432, "2024/3/13 12:53:52",  5,  -59,  1002,  0,  0,  -1,  -9,  -25,  -36
1201216, 1710334432, "2024/3/13 12:53:52",  6,  -62,  1003,  0,  0,  0,  -10,  -27,  -37
1201416, 1710334433, "2024/3/13 12:53:53",  6,  -58,  1001,  0,  0,  -1,  -12,  -26,  -35
1201616, 1710334433, "2024/3/13 12:53:53",  7,  -58,  1007,  0,  0,  0,  -11,  -27,  -35
1201816, 1710334433, "2024/3/13 12:53:53",  3,  -57,  1005,  0,  0,  0,  -10,  -26,  -34
1202016, 1710334433, "2024/3/13 12:53:53",  8,  -54,  1002,  0,  0,  -1,  -11,  -26,  -36
1202216, 1710334433, "2024/3/13 12:53:53",  2,  -60,  1000,  0,  0,  0,  -11,  -25,  -36
1202416, 1710334434, "2024/3/13 12:53:54",  9,  -63,  1005,  0,  0,  -1,  -11,  -25,  -37
1202616, 1710334434, "2024/3/13 12:53:54",  5,  -58,  1002,  0,  0,  -1,  -12,  -25,  -36
1202816, 1710334434, "2024/3/13 12:53:54",  4,  -56,  1004,  0,  0,  -1,  -10,  -26,  -36
1203016, 1710334434, "2024/3/13 12:53:54",  1,  -57,  1008,  0,  -1,  -1,  -10,  -26,  -36
1203216, 1710334434, "2024/3/13 12:53:54",  3,  -56,  1008,  1,  -1,  -1,  -11,  -25,  -36
1203416, 1710334435, "2024/3/13 12:53:55",  3,  -62,  1004,  0,  0,  -1,  -12,  -27,  -35
1203616, 1710334435, "2024/3/13 12:53:55",  0,  -64,  1005,  0,  -1,  0,  -11,  -27,  -36
1203816, 1710334435, "2024/3/13 12:53:55",  5,  -59,  1000,  0,  -1,  0,  -9,  -25,  -36
1204016, 1710334435, "2024/3/13 12:53:55",  7,  -57,  1006,  0,  0,  -1,  -11,  -26,  -37
1204216, 1710334435, "2024/3/13 12:53:55",  7,  -64,  1008,  0,  0,  -1,  -10,  -27,  -34
1204416, 1710334436, "2024/3/13 12:53:56",  8,  -52,  1006,  0,  -1,  -1,  -10,  -26,  -37
1204616, 1710334436, "2024/3/13 12:53:56",  7,  -47,  1002,  0,  -1,  -1,  -13,  -27,  -37
1204816, 1710334436, "2024/3/13 12:53:56",  10,  -57,  1007,  0,  0,  0,  -11,  -27,  -36
1205016, 1710334436, "2024/3/13 12:53:56",  8,  -59,  1009,  0,  0,  0,  -10,  -27,  -35
1205216, 1710334436, "2024/3/13 12:53:56",  7,  -49,  1006,  0,  0,  -1,  -11,  -27,  -36
1205416, 1710334437, "2024/3/13 12:53:57",  4,  -51,  1007,  0,  0,  -1,  -11,  -27,  -34
1205616, 1710334437, "2024/3/13 12:53:57",  8,  -53,  1003,  0,  0,  0,  -10,  -27,  -36
1205816, 1710334437, "2024/3/13 12:53:57",  6,  -53,  1001,  0,  0,  -1,  -11,  -25,  -36
1206016, 1710334437, "2024/3/13 12:53:57",  21,  -48,  1008,  0,  0,  -1,  -11,  -27,  -37
1206216, 1710334437, "2024/3/13 12:53:57",  4,  -62,  1001,  0,  0,  -1,  -10,  -25,  -36
1206416, 1710334438, "2024/3/13 12:53:58",  3,  -58,  1002,  0,  0,  -1,  -12,  -25,  -35
1206616, 1710334438, "2024/3/13 12:53:58",  6,  -63,  1002,  0,  0,  -1,  -10,  -27,  -34
1206816, 1710334438, "2024/3/13 12:53:58",  0,  -56,  1005,  0,  0,  -1,  -9,  -27,  -36
1207016, 1710334438, "2024/3/13 12:53:58",  7,  -57,  1005,  0,  0,  0,  -11,  -25,  -35
1207216, 1710334438, "2024/3/13 12:53:58",  1,  -59,  1000,  0,  0,  0,  -11,  -25,  -37
1207416, 1710334439, "2024/3/13 12:53:59",  5,  -55,  1001,  0,  -1,  -1,  -9,  -27,  -35
1207616, 1710334439, "2024/3/13 12:53:59",  7,  -59,  1001,  0,  0,  -1,  -12,  -25,  -35
1207816, 1710334439, "2024/3/13 12:53:59",  3,  -60,  1003,  0,  0,  -1,  -11,  -27,  -34
1208016, 1710334439, "2024/3/13 12:53:59",  3,  -56,  1002,  0,  0,  0,  -12,  -26,  -35
1208216, 1710334439, "2024/3/13 12:53:59",  4,  -58,  1005,  0,  0,  -1,  -12,  -28,  -36
1208416, 1710334440, "2024/3/13 12:54:0",  5,  -63,  999,  0,  0,  -1,  -11,  -26,  -36
1208616, 1710334440, "2024/3/13 12:54:0",  4,  -58,  1003,  0,  0,  -1,  -10,  -25,  -36
1208816, 1710334440, "2024/3/13 12:54:0",  4,  -55,  1007,  0,  -1,  -1,  -10,  -24,  -37
1209016, 1710334440, "2024/3/13 12:54:0",  -1,  -61,  1000,  0,  -1,  0,  -11,  -26,  -36
1209216, 1710334440, "2024/3/13 12:54:0",  10,  -62,  1004,  0,  0,  -1,  -10,  -26,  -34
1209416, 1710334441, "2024/3/13 12:54:1",  11,  -62,  1008,  0,  0,  0,  -11,  -26,  -36
1209616, 1710334441, "2024/3/13 12:54:1",  4,  -56,  1001,  0,  0,  0,  -11,  -26,  -37
1209816, 1710334441, "2024/3/13 12:54:1",  3,  -57,  1004,  0,  0,  0,  -11,  -27,  -36
1210016, 1710334441, "2024/3/13 12:54:1",  9,  -60,  1006,  0,  -1,  -1,  -12,  -25,  -36
1210216, 1710334441, "2024/3/13 12:54:1",  6,  -54,  1005,  0,  0,  -1,  -12,  -27,  -36
1210416, 1710334442, "2024/3/13 12:54:2",  7,  -57,  1005,  0,  0,  -1,  -10,  -26,  -36
1210616, 1710334442, "2024/3/13 12:54:2",  6,  -71,  1005,  0,  0,  -1,  -11,  -27,  -35
1210816, 1710334442, "2024/3/13 12:54:2",  5,  -63,  1002,  0,  0,  -1,  -10,  -26,  -35
1211016, 1710334442, "2024/3/13 12:54:2",  8,  -56,  1006,  0,  0,  -1,  -10,  -27,  -36
1211216, 1710334442, "2024/3/13 12:54:2",  4,  -61,  1003,  0,  0,  0,  -12,  -27,  -36
1211416, 1710334443, "2024/3/13 12:54:3",  1,  -52,  1001,  0,  0,  -1,  -12,  -26,  -35
1211616, 1710334443, "2024/3/13 12:54:3",  6,  -61,  1005,  0,  0,  -1,  -11,  -27,  -35
1211816, 1710334443, "2024/3/13 12:54:3",  8,  -51,  1000,  0,  0,  -1,  -12,  -28,  -36
1212016, 1710334443, "2024/3/13 12:54:3",  5,  -54,  1004,  0,  0,  -1,  -9,  -27,  -36
1212216, 1710334443, "2024/3/13 12:54:3",  5,  -60,  1002,  0,  0,  0,  -12,  -25,  -36
1212416, 1710334444, "2024/3/13 12:54:4",  1,  -56,  1000,  0,  0,  -1,  -12,  -26,  -36
1212616, 1710334444, "2024/3/13 12:54:4",  7,  -57,  1010,  0,  0,  -1,  -11,  -27,  -36
1212816, 1710334444, "2024/3/13 12:54:4",  3,  -51,  1004,  0,  0,  -1,  -12,  -27,  -36
1213016, 1710334444, "2024/3/13 12:54:4",  -2,  -59,  1004,  0,  0,  -1,  -11,  -27,  -35
1213216, 1710334444, "2024/3/13 12:54:4",  0,  -60,  1002,  0,  0,  -1,  -10,  -27,  -37
1213416, 1710334445, "2024/3/13 12:54:5",  -3,  -59,  1008,  0,  0,  0,  -11,  -26,  -36
1213616, 1710334445, "2024/3/13 12:54:5",  1,  -57,  1003,  0,  -1,  0,  -10,  -26,  -35
1213816, 1710334445, "2024/3/13 12:54:5",  7,  -60,  1005,  0,  -1,  -1,  -11,  -26,  -36
1214016, 1710334445, "2024/3/13 12:54:5",  2,  -53,  1006,  0,  0,  0,  -11,  -24,  -36
1214216, 1710334445, "2024/3/13 12:54:5",  -1,  -62,  1005,  0,  0,  -1,  -10,  -27,  -35
1214416, 1710334446, "2024/3/13 12:54:6",  3,  -64,  997,  0,  0,  -1,  -10,  -27,  -35
1214616, 1710334446, "2024/3/13 12:54:6",  2,  -64,  1004,  0,  0,  -1,  -10,  -28,  -35
1214816, 1710334446, "2024/3/13 12:54:6",  0,  -57,  1005,  0,  0,  -1,  -9,  -27,  -35
1215016, 1710334446, "2024/3/13 12:54:6",  3,  -59,  1003,  0,  0,  -1,  -10,  -26,  -35
1215216, 1710334446, "2024/3/13 12:54:6",  4,  -58,  1002,  0,  0,  -1,  -12,  -26,  -36
1215416, 1710334447, "2024/3/13 12:54:7",  2,  -57,  1001,  0,  0,  -1,  -11,  -25,  -34
1215616, 1710334447, "2024/3/13 12:54:7",  3,  -62,  1002,  0,  0,  0,  -11,  -27,  -34
1215816, 1710334447, "2024/3/13 12:54:7",  4,  -58,  1002,  0,  0,  -1,  -11,  -27,  -35
1216016, 1710334447, "2024/3/13 12:54:7",  8,  -55,  1004,  0,  0,  0,  -11,  -29,  -36
1216216, 1710334447, "2024/3/13 12:54:7",  1,  -61,  1006,  0,  0,  0,  -9,  -28,  -36
1216416, 1710334448, "2024/3/13 12:54:8",  7,  -58,  1006,  0,  0,  0,  -10,  -26,  -36
1216616, 1710334448, "2024/3/13 12:54:8",  3,  -55,  999,  0,  -1,  -1,  -11,  -27,  -37
1216816, 1710334448, "2024/3/13 12:54:8",  4,  -57,  1002,  0,  -1,  -1,  -10,  -26,  -37
1217016, 1710334448, "2024/3/13 12:54:8",  5,  -57,  1001,  0,  0,  -1,  -10,  -27,  -37
1217216, 1710334448, "2024/3/13 12:54:8",  4,  -57,  1003,  0,  -1,  0,  -11,  -27,  -38
1217416, 1710334449, "2024/3/13 12:54:9",  3,  -57,  1002,  0,  0,  -1,  -12,  -25,  -37
1217616, 1710334449, "2024/3/13 12:54:9",  10,  -57,  1003,  0,  0,  -1,  -10,  -27,  -36
1217816, 1710334449, "2024/3/13 12:54:9",  6,  -55,  1001,  0,  0,  0,  -11,  -24,  -36
1218016, 1710334449, "2024/3/13 12:54:9",  5,  -58,  999,  0,  -1,  0,  -12,  -26,  -36
1218216, 1710334449, "2024/3/13 12:54:9",  7,  -54,  1005,  0,  0,  -1,  -11,  -27,  -36
1218416, 1710334450, "2024/3/13 12:54:10",  7,  -53,  1006,  0,  0,  -1,  -11,  -27,  -36
1218616, 1710334450, "2024/3/13 12:54:10",  5,  -61,  1005,  0,  0,  -1,  -10,  -27,  -35
1218816, 1710334450, "2024/3/13 12:54:10",  4,  -58,  1007,  0,  0,  0,  -11,  -25,  -36
1219016, 1710334450, "2024/3/13 12:54:10",  -1,  -56,  1005,  0,  0,  0,  -11,  -27,  -36
1219216, 1710334450, "2024/3/13 12:54:10",  2,  -58,  1004,  0,  -1,  -1,  -11,  -28,  -35
1219416, 1710334451, "2024/3/13 12:54:11",  4,  -58,  1006,  0,  0,  0,  -9,  -26,  -36
1219616, 1710334451, "2024/3/13 12:54:11",  4,  -53,  1002,  0,  0,  -1,  -10,  -26,  -34
1219816, 1710334451, "2024/3/13 12:54:11",  5,  -57,  1003,  0,  -1,  0,  -12,  -27,  -36
1220016, 1710334451, "2024/3/13 12:54:11",  8,  -54,  1005,  0,  0,  0,  -11,  -26,  -35
1220216, 1710334451, "2024/3/13 12:54:11",  6,  -64,  1005,  0,  0,  -1,  -11,  -27,  -34
1220416, 1710334452, "2024/3/13 12:54:12",  2,  -59,  1009,  0,  -1,  0,  -11,  -26,  -37
1220616, 1710334452, "2024/3/13 12:54:12",  5,  -58,  1002,  0,  0,  0,  -10,  -27,  -36
1220816, 1710334452, "2024/3/13 12:54:12",  2,  -59,  1003,  0,  0,  -1,  -10,  -26,  -36
1221016, 1710334452, "2024/3/13 12:54:12",  3,  -59,  1006,  0,  0,  0,  -11,  -26,  -36
1221216, 1710334452, "2024/3/13 12:54:12",  3,  -59,  1006,  0,  0,  -1,  -10,  -27,  -36
1221416, 1710334453, "2024/3/13 12:54:13",  3,  -56,  1006,  0,  0,  -1,  -11,  -25,  -35
1221616, 1710334453, "2024/3/13 12:54:13",  5,  -55,  1002,  0,  0,  0,  -10,  -26,  -36
1221816, 1710334453, "2024/3/13 12:54:13",  6,  -61,  1001,  0,  0,  0,  -10,  -27,  -36
1222016, 1710334453, "2024/3/13 12:54:13",  9,  -57,  1003,  0,  0,  -1,  -11,  -26,  -36
1222216, 1710334453, "2024/3/13 12:54:13",  2,  -57,  1000,  0,  0,  0,  -9,  -27,  -36
1222416, 1710334454, "2024/3/13 12:54:14",  8,  -59,  1001,  0,  0,  -1,  -12,  -26,  -36
1222616, 1710334454, "2024/3/13 12:54:14",  1,  -61,  1006,  0,  0,  -1,  -10,  -26,  -37
1222816, 1710334454, "2024/3/13 12:54:14",  4,  -55,  1005,  0,  0,  0,  -11,  -26,  -35
1223016, 1710334454, "2024/3/13 12:54:14",  6,  -54,  1001,  0,  0,  0,  -9,  -28,  -35
1223216, 1710334454, "2024/3/13 12:54:14",  8,  -63,  1001,  0,  0,  -1,  -9,  -26,  -36
1223416, 1710334455, "2024/3/13 12:54:15",  7,  -61,  1001,  0,  0,  0,  -11,  -25,  -36
1223616, 1710334455, "2024/3/13 12:54:15",  3,  -60,  1004,  0,  0,  0,  -11,  -29,  -36
1223816, 1710334455, "2024/3/13 12:54:15",  5,  -58,  999,  0,  0,  0,  -11,  -27,  -36
1224016, 1710334455, "2024/3/13 12:54:15",  3,  -56,  1004,  0,  0,  0,  -11,  -27,  -35
1224216, 1710334455, "2024/3/13 12:54:15",  3,  -58,  1003,  0,  0,  0,  -11,  -24,  -36
1224416, 1710334456, "2024/3/13 12:54:16",  7,  -56,  1005,  0,  0,  0,  -11,  -26,  -35
1224616, 1710334456, "2024/3/13 12:54:16",  6,  -59,  1005,  0,  0,  0,  -12,  -27,  -36
1224816, 1710334456, "2024/3/13 12:54:16",  7,  -61,  1000,  0,  -1,  -1,  -10,  -27,  -35
1225016, 1710334456, "2024/3/13 12:54:16",  4,  -57,  1005,  0,  0,  -1,  -11,  -26,  -37
1225216, 1710334456, "2024/3/13 12:54:16",  6,  -54,  1000,  0,  0,  -1,  -11,  -27,  -36
1225416, 1710334457, "2024/3/13 12:54:17",  7,  -56,  1002,  0,  0,  0,  -11,  -26,  -36
1225616, 1710334457, "2024/3/13 12:54:17",  5,  -55,  1004,  0,  0,  0,  -9,  -26,  -36
1225816, 1710334457, "2024/3/13 12:54:17",  6,  -58,  1003,  0,  0,  -1,  -11,  -26,  -37
1226016, 1710334457, "2024/3/13 12:54:17",  4,  -59,  1004,  0,  0,  -1,  -10,  -27,  -35
1226216, 1710334457, "2024/3/13 12:54:17",  5,  -56,  1004,  0,  0,  -1,  -10,  -26,  -38
1226416, 1710334458, "2024/3/13 12:54:18",  7,  -55,  1002,  0,  0,  -1,  -10,  -26,  -35
1226616, 1710334458, "2024/3/13 12:54:18",  4,  -56,  1004,  0,  0,  -1,  -10,  -26,  -38
1226816, 1710334458, "2024/3/13 12:54:18",  2,  -67,  1004,  0,  0,  -1,  -11,  -26,  -36
1227016, 1710334458, "2024/3/13 12:54:18",  7,  -59,  1006,  0,  0,  0,  -10,  -27,  -36
1227216, 1710334458, "2024/3/13 12:54:18",  3,  -56,  1000,  0,  0,  -1,  -11,  -26,  -36
1227416, 1710334459, "2024/3/13 12:54:19",  2,  -56,  1000,  0,  0,  0,  -11,  -27,  -34
1227616, 1710334459, "2024/3/13 12:54:19",  2,  -60,  1004,  0,  0,  -1,  -12,  -25,  -34
1227816, 1710334459, "2024/3/13 12:54:19",  2,  -63,  1005,  0,  0,  -1,  -10,  -27,  -37
1228016, 1710334459, "2024/3/13 12:54:19",  6,  -64,  1005,  0,  -1,  -1,  -11,  -27,  -36
1228216, 1710334459, "2024/3/13 12:54:19",  5,  -60,  1008,  0,  0,  0,  -11,  -25,  -37
1228416, 1710334460, "2024/3/13 12:54:20",  4,  -55,  1003,  0,  0,  -1,  -10,  -27,  -35
1228616, 1710334460, "2024/3/13 12:54:20",  10,  -60,  1006,  0,  0,  0,  -10,  -26,  -34
1228816, 1710334460, "2024/3/13 12:54:20",  8,  -54,  1004,  0,  0,  0,  -9,  -27,  -35
1229016, 1710334460, "2024/3/13 12:54:20",  5,  -60,  1002,  0,  0,  -1,  -12,  -26,  -36
1229216, 1710334460, "2024/3/13 12:54:20",  3,  -57,  1005,  0,  0,  -1,  -11,  -27,  -37
1229416, 1710334461, "2024/3/13 12:54:21",  7,  -54,  1004,  0,  0,  0,  -11,  -28,  -35
1229616, 1710334461, "2024/3/13 12:54:21",  3,  -58,  1003,  0,  0,  0,  -12,  -27,  -36
1229816, 1710334461, "2024/3/13 12:54:21",  7,  -62,  1005,  0,  0,  0,  -11,  -27,  -36
1230016, 1710334461, "2024/3/13 12:54:21",  5,  -62,  1004,  0,  0,  -1,  -13,  -26,  -35
1230216, 1710334461, "2024/3/13 12:54:21",  0,  -56,  1006,  0,  0,  -1,  -10,  -26,  -36
1230416, 1710334462, "2024/3/13 12:54:22",  1,  -59,  1001,  0,  0,  -1,  -11,  -25,  -36
1230616, 1710334462, "2024/3/13 12:54:22",  7,  -57,  1006,  0,  0,  -1,  -12,  -27,  -35
1230816, 1710334462, "2024/3/13 12:54:22",  3,  -58,  1004,  0,  0,  -1,  -11,  -26,  -35
1231016, 1710334462, "2024/3/13 12:54:22",  0,  -57,  1002,  0,  0,  0,  -11,  -25,  -36
1231216, 1710334462, "2024/3/13 12:54:22",  6,  -55,  1007,  0,  0,  -1,  -9,  -26,  -34
1231416, 1710334463, "2024/3/13 12:54:23",  4,  -55,  1002,  0,  0,  0,  -11,  -26,  -36
1231616, 1710334463, "2024/3/13 12:54:23",  7,  -63,  1000,  0,  0,  -1,  -10,  -27,  -36
1231816, 1710334463, "2024/3/13 12:54:23",  6,  -60,  1003,  0,  0,  -1,  -10,  -27,  -36
1232016, 1710334463, "2024/3/13 12:54:23",  1,  -58,  1002,  0,  0,  0,  -12,  -26,  -37
1232216, 1710334463, "2024/3/13 12:54:23",  6,  -54,  1003,  0,  0,  -1,  -12,  -26,  -37
1232416, 1710334464, "2024/3/13 12:54:24",  5,  -59,  1005,  0,  0,  -1,  -11,  -27,  -33
1232616, 1710334464, "2024/3/13 12:54:24",  5,  -56,  1003,  0,  0,  -1,  -9,  -25,  -36
1232816, 1710334464, "2024/3/13 12:54:24",  5,  -59,  1000,  0,  -1,  -1,  -10,  -26,  -35
1233016, 1710334464, "2024/3/13 12:54:24",  6,  -54,  1007,  0,  -1,  -1,  -10,  -26,  -36
1233216, 1710334465, "2024/3/13 12:54:25",  3,  -56,  1006,  0,  0,  0,  -12,  -26,  -36
1233416, 1710334465, "2024/3/13 12:54:25",  3,  -53,  1003,  0,  0,  -1,  -10,  -27,  -36
1233616, 1710334465, "2024/3/13 12:54:25",  3,  -53,  1001,  0,  0,  -1,  -12,  -28,  -36
1233816, 1710334465, "2024/3/13 12:54:25",  3,  -57,  1001,  0,  0,  0,  -11,  -26,  -35
1234016, 1710334465, "2024/3/13 12:54:25",  4,  -65,  1005,  0,  0,  -1,  -11,  -27,  -36
1234216, 1710334466, "2024/3/13 12:54:26",  8,  -64,  1003,  0,  -1,  -1,  -10,  -26,  -36
1234416, 1710334466, "2024/3/13 12:54:26",  4,  -58,  1000,  0,  -1,  -1,  -10,  -25,  -34
1234616, 1710334466, "2024/3/13 12:54:26",  4,  -57,  1004,  0,  0,  -1,  -11,  -27,  -36
1234816, 1710334466, "2024/3/13 12:54:26",  2,  -59,  1003,  0,  0,  0,  -10,  -26,  -36
1235016, 1710334466, "2024/3/13 12:54:26",  5,  -56,  1001,  0,  0,  0,  -10,  -25,  -37
1235216, 1710334467, "2024/3/13 12:54:27",  3,  -58,  1008,  0,  0,  0,  -10,  -26,  -37
1235416, 1710334467, "2024/3/13 12:54:27",  5,  -66,  1002,  0,  0,  -1,  -9,  -25,  -36
1235616, 1710334467, "2024/3/13 12:54:27",  4,  -60,  1004,  0,  0,  0,  -11,  -27,  -33
1235816, 1710334467, "2024/3/13 12:54:27",  8,  -50,  1003,  0,  0,  -1,  -11,  -26,  -35
1236016, 1710334467, "2024/3/13 12:54:27",  8,  -51,  1004,  0,  0,  -1,  -11,  -26,  -36
1236216, 1710334468, "2024/3/13 12:54:28",  1,  -59,  1002,  0,  0,  -1,  -11,  -26,  -35
1236416, 1710334468, "2024/3/13 12:54:28",  3,  -71,  1004,  0,  0,  -1,  -12,  -27,  -36
1236616, 1710334468, "2024/3/13 12:54:28",  8,  -56,  1004,  0,  -1,  0,  -11,  -26,  -37
1236816, 1710334468, "2024/3/13 12:54:28",  8,  -67,  1013,  0,  0,  -1,  -10,  -27,  -36
1237016, 1710334468, "2024/3/13 12:54:28",  8,  -64,  1003,  0,  0,  0,  -12,  -27,  -36
1237216, 1710334469, "2024/3/13 12:54:29",  3,  -52,  1000,  0,  0,  0,  -11,  -25,  -36
1237416, 1710334469, "2024/3/13 12:54:29",  7,  -57,  1006,  0,  -1,  -1,  -10,  -26,  -36
1237616, 1710334469, "2024/3/13 12:54:29",  6,  -55,  1001,  0,  0,  -1,  -12,  -25,  -36
1237816, 1710334469, "2024/3/13 12:54:29",  5,  -58,  1008,  0,  0,  -1,  -11,  -28,  -35
1238016, 1710334469, "2024/3/13 12:54:29",  3,  -58,  1003,  0,  -1,  -1,  -10,  -27,  -36
1238216, 1710334470, "2024/3/13 12:54:30",  2,  -58,  1004,  0,  0,  0,  -9,  -26,  -35
1238416, 1710334470, "2024/3/13 12:54:30",  4,  -57,  1002,  0,  0,  0,  -11,  -28,  -36
1238616, 1710334470, "2024/3/13 12:54:30",  -2,  -59,  1005,  0,  0,  -1,  -10,  -26,  -36
1238816, 1710334470, "2024/3/13 12:54:30",  1,  -54,  1006,  0,  0,  0,  -11,  -26,  -37
1239016, 1710334470, "2024/3/13 12:54:30",  4,  -56,  1005,  0,  0,  -1,  -10,  -26,  -35
1239216, 1710334471, "2024/3/13 12:54:31",  4,  -62,  1007,  0,  -1,  -1,  -11,  -29,  -35
1239416, 1710334471, "2024/3/13 12:54:31",  9,  -52,  1004,  0,  0,  -1,  -10,  -27,  -35
1239616, 1710334471, "2024/3/13 12:54:31",  8,  -58,  1003,  0,  0,  0,  -8,  -26,  -36
1239816, 1710334471, "2024/3/13 12:54:31",  5,  -58,  1005,  0,  -1,  -1,  -11,  -27,  -36
1240016, 1710334471, "2024/3/13 12:54:31",  4,  -59,  1003,  0,  0,  0,  -9,  -27,  -37
1240216, 1710334472, "2024/3/13 12:54:32",  4,  -52,  1000,  0,  0,  0,  -11,  -27,  -35
1240416, 1710334472, "2024/3/13 12:54:32",  7,  -62,  1005,  0,  -1,  -1,  -10,  -27,  -37
1240616, 1710334472, "2024/3/13 12:54:32",  6,  -56,  1005,  0,  0,  -1,  -10,  -28,  -36
1240816, 1710334472, "2024/3/13 12:54:32",  6,  -56,  1004,  0,  0,  -1,  -12,  -26,  -36
1241016, 1710334472, "2024/3/13 12:54:32",  6,  -53,  1001,  0,  -1,  -1,  -12,  -28,  -34
1241216, 1710334473, "2024/3/13 12:54:33",  2,  -59,  1006,  0,  0,  -1,  -11,  -26,  -37
1241416, 1710334473, "2024/3/13 12:54:33",  2,  -49,  1001,  0,  0,  -1,  -11,  -27,  -35
1241616, 1710334473, "2024/3/13 12:54:33",  8,  -56,  1001,  0,  0,  -1,  -10,  -27,  -35
1241816, 1710334473, "2024/3/13 12:54:33",  3,  -58,  1001,  0,  0,  0,  -10,  -28,  -36
1242016, 1710334473, "2024/3/13 12:54:33",  5,  -56,  1005,  0,  0,  -1,  -9,  -27,  -36
1242216, 1710334474, "2024/3/13 12:54:34",  8,  -57,  1004,  0,  0,  -1,  -12,  -27,  -36
1242416, 1710334474, "2024/3/13 12:54:34",  7,  -58,  1006,  0,  -1,  0,  -11,  -27,  -36
1242616, 1710334474, "2024/3/13 12:54:34",  4,  -59,  1003,  0,  0,  -1,  -10,  -28,  -36
1242816, 1710334474, "2024/3/13 12:54:34",  5,  -58,  1001,  0,  0,  0,  -11,  -27,  -36
1243016, 1710334474, "2024/3/13 12:54:34",  4,  -50,  1005,  0,  0,  -1,  -10,  -26,  -35
1243216, 1710334475, "2024/3/13 12:54:35",  6,  -58,  1001,  0,  0,  -1,  -9,  -26,  -36
1243416, 1710334475, "2024/3/13 12:54:35",  5,  -57,  1004,  0,  0,  0,  -12,  -25,  -35
1243616, 1710334475, "2024/3/13 12:54:35",  5,  -54,  1004,  0,  0,  -1,  -11,  -26,  -37
1243816, 1710334475, "2024/3/13 12:54:35",  6,  -57,  1004,  0,  0,  -1,  -11,  -24,  -35
1244016, 1710334475, "2024/3/13 12:54:35",  3,  -59,  1005,  0,  0,  -1,  -11,  -25,  -36
1244216, 1710334476, "2024/3/13 12:54:36",  7,  -58,  1003,  0,  0,  -1,  -10,  -26,  -37
1244416, 1710334476, "2024/3/13 12:54:36",  10,  -55,  1002,  0,  0,  -1,  -11,  -27,  -36
1244616, 1710334476, "2024/3/13 12:54:36",  10,  -56,  1008,  0,  0,  0,  -11,  -27,  -36
1244816, 1710334476, "2024/3/13 12:54:36",  1,  -54,  1000,  0,  0,  -1,  -10,  -27,  -36
1245016, 1710334476, "2024/3/13 12:54:36",  3,  -62,  1007,  0,  -1,  -1,  -10,  -26,  -36
1245216, 1710334477, "2024/3/13 12:54:37",  8,  -57,  1000,  0,  0,  -1,  -11,  -26,  -36
1245416, 1710334477, "2024/3/13 12:54:37",  10,  -60,  1002,  0,  0,  -1,  -11,  -26,  -36
1245616, 1710334477, "2024/3/13 12:54:37",  7,  -57,  1003,  0,  0,  0,  -11,  -27,  -37
1245816, 1710334477, "2024/3/13 12:54:37",  8,  -54,  1004,  0,  0,  -1,  -10,  -25,  -35
1246016, 1710334477, "2024/3/13 12:54:37",  3,  -57,  999,  0,  0,  -1,  -9,  -24,  -36
1246216, 1710334478, "2024/3/13 12:54:38",  7,  -56,  1005,  0,  0,  -1,  -9,  -28,  -35
1246416, 1710334478, "2024/3/13 12:54:38",  6,  -52,  1004,  0,  0,  -1,  -11,  -26,  -36
1246616, 1710334478, "2024/3/13 12:54:38",  4,  -60,  1000,  0,  0,  -1,  -13,  -28,  -36
1246816, 1710334478, "2024/3/13 12:54:38",  7,  -60,  1000,  0,  0,  0,  -10,  -27,  -36
1247016, 1710334478, "2024/3/13 12:54:38",  5,  -58,  1003,  0,  0,  -1,  -10,  -26,  -37
1247216, 1710334479, "2024/3/13 12:54:39",  5,  -53,  1004,  0,  0,  -1,  -11,  -27,  -37
1247416, 1710334479, "2024/3/13 12:54:39",  4,  -53,  1003,  0,  0,  0,  -11,  -26,  -36
1247616, 1710334479, "2024/3/13 12:54:39",  5,  -61,  1003,  0,  0,  0,  -12,  -26,  -36
1247816, 1710334479, "2024/3/13 12:54:39",  1,  -60,  1001,  0,  0,  -1,  -11,  -26,  -36
1248016, 1710334479, "2024/3/13 12:54:39",  -1,  -65,  1004,  0,  -1,  0,  -10,  -26,  -35
1248216, 1710334480, "2024/3/13 12:54:40",  1,  -52,  1002,  0,  0,  0,  -11,  -27,  -37
1248416, 1710334480, "2024/3/13 12:54:40",  10,  -58,  1006,  0,  0,  0,  -11,  -26,  -36
1248616, 1710334480, "2024/3/13 12:54:40",  2,  -57,  1006,  0,  0,  -1,  -12,  -28,  -36
1248816, 1710334480, "2024/3/13 12:54:40",  6,  -55,  1007,  0,  0,  -1,  -10,  -26,  -35
1249016, 1710334480, "2024/3/13 12:54:40",  7,  -56,  1004,  0,  0,  -1,  -10,  -25,  -37
1249216, 1710334481, "2024/3/13 12:54:41",  8,  -59,  1001,  0,  0,  -1,  -11,  -27,  -36
1249416, 1710334481, "2024/3/13 12:54:41",  3,  -57,  1002,  0,  0,  -1,  -11,  -28,  -36
1249616, 1710334481, "2024/3/13 12:54:41",  5,  -53,  1001,  0,  0,  0,  -11,  -28,  -36
1249816, 1710334481, "2024/3/13 12:54:41",  7,  -61,  1002,  0,  0,  0,  -11,  -25,  -36
1250016, 1710334481, "2024/3/13 12:54:41",  8,  -59,  1000,  0,  -1,  0,  -9,  -25,  -36
1250216, 1710334482, "2024/3/13 12:54:42",  4,  -55,  1001,  0,  0,  -1,  -11,  -27,  -36
1250416, 1710334482, "2024/3/13 12:54:42",  5,  -64,  1001,  0,  0,  0,  -11,  -25,  -36
1250616, 1710334482, "2024/3/13 12:54:42",  6,  -61,  1004,  0,  -1,  -1,  -11,  -27,  -37
1250816, 1710334482, "2024/3/13 12:54:42",  4,  -57,  1005,  0,  0,  -1,  -11,  -28,  -35
1251016, 1710334482, "2024/3/13 12:54:42",  6,  -60,  1005,  0,  0,  0,  -11,  -27,  -36
1251216, 1710334483, "2024/3/13 12:54:43",  7,  -56,  1004,  0,  0,  -1,  -11,  -26,  -36
1251416, 1710334483, "2024/3/13 12:54:43",  8,  -50,  1004,  0,  0,  -1,  -11,  -26,  -36
1251616, 1710334483, "2024/3/13 12:54:43",  6,  -59,  1007,  0,  0,  -1,  -11,  -26,  -36
1251816, 1710334483, "2024/3/13 12:54:43",  3,  -57,  1003,  0,  0,  -1,  -11,  -25,  -36
1252016, 1710334483, "2024/3/13 12:54:43",  3,  -60,  1007,  0,  0,  -1,  -10,  -27,  -35
1252216, 1710334484, "2024/3/13 12:54:44",  3,  -53,  1004,  0,  0,  0,  -11,  -25,  -35
1252416, 1710334484, "2024/3/13 12:54:44",  5,  -58,  1005,  0,  0,  -1,  -10,  -26,  -36
1252616, 1710334484, "2024/3/13 12:54:44",  4,  -58,  1007,  0,  -1,  -1,  -9,  -27,  -36
1252816, 1710334484, "2024/3/13 12:54:44",  6,  -55,  1004,  0,  0,  0,  -10,  -26,  -36
1253016, 1710334484, "2024/3/13 12:54:44",  5,  -59,  1006,  0,  -1,  -1,  -11,  -27,  -35
1253216, 1710334485, "2024/3/13 12:54:45",  7,  -59,  1007,  0,  0,  0,  -11,  -27,  -36
1253416, 1710334485, "2024/3/13 12:54:45",  4,  -54,  1001,  0,  0,  0,  -11,  -26,  -36
1253616, 1710334485, "2024/3/13 12:54:45",  5,  -58,  1005,  0,  0,  0,  -10,  -27,  -36
1253816, 1710334485, "2024/3/13 12:54:45",  0,  -60,  1002,  0,  0,  -1,  -13,  -27,  -36
1254016, 1710334485, "2024/3/13 12:54:45",  4,  -54,  1005,  0,  0,  0,  -9,  -26,  -35
1254216, 1710334486, "2024/3/13 12:54:46",  3,  -52,  1002,  0,  0,  0,  -9,  -27,  -36
1254416, 1710334486, "2024/3/13 12:54:46",  3,  -60,  1002,  0,  0,  0,  -11,  -26,  -36
1254616, 1710334486, "2024/3/13 12:54:46",  5,  -56,  1007,  0,  0,  -1,  -11,  -27,  -35
1254816, 1710334486, "2024/3/13 12:54:46",  6,  -54,  1002,  0,  -1,  0,  -11,  -27,  -36
1255016, 1710334486, "2024/3/13 12:54:46",  4,  -57,  1003,  0,  0,  -1,  -10,  -27,  -37
1255216, 1710334487, "2024/3/13 12:54:47",  5,  -60,  1005,  0,  0,  -1,  -11,  -26,  -36
1255416, 1710334487, "2024/3/13 12:54:47",  1,  -61,  1002,  0,  0,  0,  -8,  -28,  -36
1255616, 1710334487, "2024/3/13 12:54:47",  5,  -54,  1006,  0,  0,  -1,  -11,  -27,  -36
1255816, 1710334487, "2024/3/13 12:54:47",  7,  -55,  1004,  0,  0,  -1,  -10,  -26,  -36
1256016, 1710334487, "2024/3/13 12:54:47",  5,  -53,  1003,  0,  0,  -1,  -9,  -25,  -36
1256216, 1710334488, "2024/3/13 12:54:48",  6,  -53,  1006,  0,  0,  -1,  -11,  -27,  -38
1256416, 1710334488, "2024/3/13 12:54:48",  5,  -57,  1007,  0,  0,  -1,  -10,  -25,  -35
1256616, 1710334488, "2024/3/13 12:54:48",  1,  -54,  1001,  0,  0,  -1,  -11,  -26,  -37
1256816, 1710334488, "2024/3/13 12:54:48",  7,  -61,  1004,  0,  0,  -1,  -12,  -25,  -36
1257016, 1710334488, "2024/3/13 12:54:48",  0,  -57,  1003,  0,  0,  -1,  -11,  -25,  -36
1257216, 1710334489, "2024/3/13 12:54:49",  5,  -56,  1002,  0,  0,  -1,  -11,  -28,  -36
1257416, 1710334489, "2024/3/13 12:54:49",  6,  -57,  1007,  0,  0,  0,  -11,  -26,  -35
1257616, 1710334489, "2024/3/13 12:54:49",  3,  -56,  1005,  0,  0,  0,  -11,  -28,  -36
1257816, 1710334489, "2024/3/13 12:54:49",  8,  -58,  1000,  0,  -1,  -1,  -11,  -27,  -36
1258016, 1710334489, "2024/3/13 12:54:49",  5,  -53,  1005,  0,  0,  0,  -11,  -26,  -36
1258216, 1710334490, "2024/3/13 12:54:50",  4,  -56,  1005,  0,  0,  0,  -12,  -26,  -35
1258416, 1710334490, "2024/3/13 12:54:50",  8,  -50,  1005,  0,  0,  -1,  -10,  -26,  -36
1258616, 1710334490, "2024/3/13 12:54:50",  10,  -56,  1005,  0,  0,  0,  -12,  -28,  -34
1258816, 1710334490, "2024/3/13 12:54:50",  8,  -59,  1004,  0,  0,  -1,  -12,  -25,  -36
1259016, 1710334490, "2024/3/13 12:54:50",  4,  -57,  1010,  0,  0,  -1,  -11,  -29,  -36
1259216, 1710334491, "2024/3/13 12:54:51",  7,  -56,  1009,  0,  0,  -1,  -11,  -27,  -36
1259416, 1710334491, "2024/3/13 12:54:51",  10,  -60,  1001,  0,  0,  -1,  -12,  -27,  -36
1259616, 1710334491, "2024/3/13 12:54:51",  5,  -52,  1007,  0,  0,  0,  -11,  -27,  -37
1259816, 1710334491, "2024/3/13 12:54:51",  5,  -68,  998,  0,  0,  -1,  -12,  -27,  -34
1260016, 1710334491, "2024/3/13 12:54:51",  5,  -57,  1001,  0,  0,  0,  -10,  -26,  -37
1260216, 1710334492, "2024/3/13 12:54:52",  13,  -57,  1004,  0,  0,  -1,  -12,  -26,  -36
1260416, 1710334492, "2024/3/13 12:54:52",  7,  -55,  1005,  0,  -1,  -1,  -13,  -27,  -35
1260616, 1710334492, "2024/3/13 12:54:52",  6,  -56,  1003,  0,  0,  0,  -10,  -26,  -36
1260816, 1710334492, "2024/3/13 12:54:52",  8,  -56,  1008,  0,  0,  0,  -12,  -28,  -35
1261016, 1710334492, "2024/3/13 12:54:52",  2,  -63,  999,  0,  0,  -1,  -11,  -26,  -36
1261216, 1710334493, "2024/3/13 12:54:53",  5,  -56,  1004,  0,  0,  -1,  -11,  -25,  -36
1261416, 1710334493, "2024/3/13 12:54:53",  5,  -48,  1002,  0,  0,  -1,  -11,  -25,  -36
1261616, 1710334493, "2024/3/13 12:54:53",  4,  -56,  1005,  0,  0,  -1,  -12,  -26,  -35
1261816, 1710334493, "2024/3/13 12:54:53",  2,  -52,  1006,  0,  -1,  0,  -12,  -26,  -34
1262016, 1710334493, "2024/3/13 12:54:53",  4,  -50,  1002,  0,  -1,  -1,  -10,  -26,  -36
1262216, 1710334494, "2024/3/13 12:54:54",  9,  -57,  1000,  0,  -1,  -1,  -12,  -28,  -35
1262416, 1710334494, "2024/3/13 12:54:54",  5,  -59,  1002,  0,  0,  0,  -12,  -25,  -36
1262616, 1710334494, "2024/3/13 12:54:54",  10,  -55,  1003,  0,  0,  -1,  -10,  -28,  -36
1262816, 1710334494, "2024/3/13 12:54:54",  5,  -64,  1007,  0,  0,  0,  -9,  -26,  -36
1263016, 1710334494, "2024/3/13 12:54:54",  7,  -61,  1004,  0,  0,  0,  -11,  -26,  -35
1263216, 1710334495, "2024/3/13 12:54:55",  6,  -54,  1002,  0,  0,  -1,  -9,  -25,  -36
1263416, 1710334495, "2024/3/13 12:54:55",  8,  -52,  1003,  0,  0,  -1,  -10,  -26,  -35
1263616, 1710334495, "2024/3/13 12:54:55",  1,  -57,  1005,  0,  0,  -1,  -10,  -27,  -36
1263816, 1710334495, "2024/3/13 12:54:55",  2,  -53,  1004,  0,  -1,  -1,  -11,  -25,  -37
1264016, 1710334495, "2024/3/13 12:54:55",  3,  -54,  999,  0,  0,  -1,  -12,  -26,  -37
1264216, 1710334496, "2024/3/13 12:54:56",  2,  -57,  1006,  0,  -1,  -1,  -11,  -26,  -36
1264416, 1710334496, "2024/3/13 12:54:56",  3,  -62,  1006,  0,  0,  -1,  -12,  -26,  -36
1264616, 1710334496, "2024/3/13 12:54:56",  6,  -59,  1002,  0,  0,  0,  -11,  -25,  -35
1264816, 1710334496, "2024/3/13 12:54:56",  3,  -61,  1004,  0,  -1,  -1,  -10,  -27,  -36
1265016, 1710334496, "2024/3/13 12:54:56",  0,  -52,  1010,  0,  0,  0,  -10,  -27,  -37
1265216, 1710334497, "2024/3/13 12:54:57",  2,  -54,  1005,  0,  0,  -1,  -12,  -27,  -36
1265416, 1710334497, "2024/3/13 12:54:57",  9,  -51,  1002,  0,  0,  -1,  -11,  -27,  -37
1265616, 1710334497, "2024/3/13 12:54:57",  1,  -56,  1003,  0,  0,  0,  -9,  -28,  -35
1265816, 1710334497, "2024/3/13 12:54:57",  6,  -53,  1004,  0,  0,  -1,  -10,  -28,  -35
1266016, 1710334497, "2024/3/13 12:54:57",  11,  -58,  1009,  0,  0,  -1,  -10,  -26,  -36
1266216, 1710334498, "2024/3/13 12:54:58",  1,  -60,  1006,  0,  0,  -1,  -12,  -28,  -35
1266416, 1710334498, "2024/3/13 12:54:58",  4,  -58,  1003,  0,  -1,  0,  -10,  -28,  -37
1266616, 1710334498, "2024/3/13 12:54:58",  8,  -53,  1004,  0,  0,  0,  -11,  -26,  -36
1266816, 1710334498, "2024/3/13 12:54:58",  4,  -54,  1004,  0,  0,  -1,  -10,  -26,  -36
1267016, 1710334498, "2024/3/13 12:54:58",  6,  -54,  1004,  0,  0,  0,  -11,  -28,  -34
1267216, 1710334499, "2024/3/13 12:54:59",  3,  -58,  1004,  0,  0,  -1,  -12,  -27,  -37
1267416, 1710334499, "2024/3/13 12:54:59",  8,  -55,  1008,  0,  0,  -1,  -12,  -27,  -36
1267616, 1710334499, "2024/3/13 12:54:59",  2,  -56,  1003,  0,  0,  -1,  -10,  -26,  -36
1267816, 1710334499, "2024/3/13 12:54:59",  5,  -54,  1004,  0,  0,  -1,  -11,  -26,  -35
1268016, 1710334499, "2024/3/13 12:54:59",  6,  -57,  1004,  0,  0,  -1,  -10,  -28,  -36
1268216, 1710334500, "2024/3/13 12:55:0",  5,  -58,  999,  0,  0,  -1,  -9,  -27,  -35
1268416, 1710334500, "2024/3/13 12:55:0",  2,  -54,  1004,  0,  0,  0,  -11,  -28,  -37
1268616, 1710334500, "2024/3/13 12:55:0",  3,  -55,  1003,  0,  -1,  0,  -11,  -27,  -33
1268816, 1710334500, "2024/3/13 12:55:0",  5,  -60,  1000,  0,  -1,  -1,  -11,  -27,  -36
1269016, 1710334500, "2024/3/13 12:55:0",  6,  -61,  1008,  0,  0,  -1,  -10,  -27,  -36
1269216, 1710334501, "2024/3/13 12:55:1",  4,  -56,  1002,  0,  0,  -1,  -11,  -27,  -36
1269416, 1710334501, "2024/3/13 12:55:1",  4,  -58,  1000,  0,  0,  0,  -11,  -26,  -36
1269616, 1710334501, "2024/3/13 12:55:1",  5,  -62,  1007,  0,  0,  -1,  -9,  -27,  -36
1269816, 1710334501, "2024/3/13 12:55:1",  5,  -58,  999,  0,  -1,  -1,  -11,  -27,  -36
1270016, 1710334501, "2024/3/13 12:55:1",  4,  -56,  1003,  0,  0,  -1,  -11,  -27,  -35
1270216, 1710334502, "2024/3/13 12:55:2",  5,  -57,  1004,  0,  0,  -1,  -11,  -25,  -36
1270416, 1710334502, "2024/3/13 12:55:2",  9,  -59,  1001,  0,  0,  -1,  -10,  -27,  -36
1270616, 1710334502, "2024/3/13 12:55:2",  11,  -54,  1006,  0,  0,  -1,  -11,  -26,  -35
1270816, 1710334502, "2024/3/13 12:55:2",  5,  -56,  1002,  0,  0,  0,  -10,  -26,  -36
1271016, 1710334502, "2024/3/13 12:55:2",  2,  -55,  1004,  0,  0,  0,  -11,  -25,  -36
1271216, 1710334503, "2024/3/13 12:55:3",  4,  -56,  1002,  0,  0,  -1,  -11,  -26,  -36
1271416, 1710334503, "2024/3/13 12:55:3",  4,  -63,  1003,  0,  0,  -1,  -10,  -27,  -35
1271616, 1710334503, "2024/3/13 12:55:3",  3,  -57,  1003,  0,  -1,  -1,  -11,  -27,  -36
1271816, 1710334503, "2024/3/13 12:55:3",  7,  -60,  1003,  0,  0,  -1,  -10,  -27,  -36
1272016, 1710334503, "2024/3/13 12:55:3",  14,  -52,  1012,  0,  0,  -1,  -11,  -28,  -35
1272216, 1710334504, "2024/3/13 12:55:4",  6,  -57,  1006,  0,  0,  0,  -10,  -27,  -36
1272416, 1710334504, "2024/3/13 12:55:4",  4,  -61,  1001,  0,  0,  0,  -11,  -27,  -36
1272616, 1710334504, "2024/3/13 12:55:4",  5,  -54,  1004,  0,  -1,  0,  -9,  -26,  -36
1272816, 1710334504, "2024/3/13 12:55:4",  2,  -55,  1002,  0,  0,  0,  -10,  -27,  -36
1273016, 1710334504, "2024/3/13 12:55:4",  4,  -59,  1006,  0,  0,  -1,  -10,  -26,  -34
1273216, 1710334505, "2024/3/13 12:55:5",  9,  -56,  1007,  0,  0,  -1,  -12,  -25,  -37
1273416, 1710334505, "2024/3/13 12:55:5",  0,  -59,  1004,  0,  0,  -1,  -11,  -27,  -34
1273616, 1710334505, "2024/3/13 12:55:5",  8,  -56,  1004,  0,  0,  -1,  -11,  -26,  -36
1273816, 1710334505, "2024/3/13 12:55:5",  5,  -54,  1006,  0,  0,  0,  -8,  -28,  -35
1274016, 1710334505, "2024/3/13 12:55:5",  5,  -56,  999,  0,  0,  -1,  -10,  -26,  -36
1274216, 1710334506, "2024/3/13 12:55:6",  6,  -61,  1001,  0,  0,  0,  -10,  -28,  -35
1274416, 1710334506, "2024/3/13 12:55:6",  9,  -58,  1005,  0,  0,  -1,  -11,  -25,  -36
1274616, 1710334506, "2024/3/13 12:55:6",  8,  -60,  1002,  0,  0,  -1,  -12,  -26,  -36
1274816, 1710334506, "2024/3/13 12:55:6",  1,  -58,  1001,  0,  0,  0,  -10,  -26,  -34
1275016, 1710334506, "2024/3/13 12:55:6",  3,  -53,  1004,  0,  0,  0,  -11,  -27,  -36
1275216, 1710334507, "2024/3/13 12:55:7",  0,  -58,  1005,  0,  0,  -1,  -11,  -27,  -35
1275416, 1710334507, "2024/3/13 12:55:7",  3,  -62,  1003,  0,  -1,  -1,  -10,  -27,  -36
1275616, 1710334507, "2024/3/13 12:55:7",  5,  -60,  1008,  0,  -1,  0,  -12,  -26,  -35
1275816, 1710334507, "2024/3/13 12:55:7",  4,  -59,  1003,  0,  -1,  -1,  -11,  -26,  -36
1276016, 1710334507, "2024/3/13 12:55:7",  4,  -63,  1000,  0,  0,  -1,  -10,  -25,  -37
1276216, 1710334508, "2024/3/13 12:55:8",  2,  -56,  1004,  0,  0,  -1,  -11,  -27,  -35
1276416, 1710334508, "2024/3/13 12:55:8",  4,  -55,  1000,  0,  0,  0,  -11,  -25,  -36
1276616, 1710334508, "2024/3/13 12:55:8",  3,  -59,  1005,  0,  0,  0,  -11,  -28,  -35
1276816, 1710334508, "2024/3/13 12:55:8",  4,  -60,  1006,  0,  0,  0,  -10,  -26,  -36
1277016, 1710334508, "2024/3/13 12:55:8",  6,  -52,  1002,  0,  0,  -1,  -11,  -27,  -37
1277216, 1710334509, "2024/3/13 12:55:9",  4,  -54,  1004,  0,  0,  0,  -12,  -26,  -35
1277416, 1710334509, "2024/3/13 12:55:9",  7,  -61,  1007,  0,  0,  -1,  -11,  -26,  -36
1277616, 1710334509, "2024/3/13 12:55:9",  10,  -58,  1006,  0,  0,  -1,  -12,  -26,  -37
1277816, 1710334509, "2024/3/13 12:55:9",  9,  -55,  1000,  0,  0,  -1,  -11,  -26,  -36
1278016, 1710334509, "2024/3/13 12:55:9",  5,  -54,  1004,  0,  0,  -1,  -11,  -27,  -36
1278216, 1710334510, "2024/3/13 12:55:10",  6,  -58,  1005,  0,  -1,  -1,  -10,  -27,  -35
1278416, 1710334510, "2024/3/13 12:55:10",  0,  -67,  1001,  0,  0,  -1,  -11,  -26,  -36
1278616, 1710334510, "2024/3/13 12:55:10",  2,  -63,  1005,  0,  0,  -1,  -11,  -26,  -37
1278816, 1710334510, "2024/3/13 12:55:10",  5,  -56,  1006,  0,  0,  -1,  -11,  -25,  -37
1279016, 1710334510, "2024/3/13 12:55:10",  5,  -53,  1003,  0,  0,  0,  -11,  -26,  -36
1279216, 1710334511, "2024/3/13 12:55:11",  9,  -54,  1005,  0,  0,  0,  -11,  -27,  -34
1279416, 1710334511, "2024/3/13 12:55:11",  3,  -62,  1003,  0,  0,  -1,  -10,  -26,  -36
1279616, 1710334511, "2024/3/13 12:55:11",  6,  -56,  1002,  0,  0,  -1,  -11,  -25,  -35
1279816, 1710334511, "2024/3/13 12:55:11",  4,  -59,  1003,  0,  0,  -1,  -11,  -25,  -35
1280016, 1710334511, "2024/3/13 12:55:11",  11,  -63,  1006,  0,  0,  -1,  -10,  -28,  -36
1280216, 1710334512, "2024/3/13 12:55:12",  7,  -64,  1003,  0,  0,  -1,  -11,  -25,  -36
1280416, 1710334512, "2024/3/13 12:55:12",  0,  -58,  1005,  0,  0,  0,  -11,  -25,  -36
1280616, 1710334512, "2024/3/13 12:55:12",  5,  -59,  1004,  0,  -1,  -1,  -11,  -28,  -36
1280816, 1710334512, "2024/3/13 12:55:12",  8,  -63,  1008,  0,  0,  -1,  -11,  -25,  -37
1281016, 1710334512, "2024/3/13 12:55:12",  4,  -61,  1007,  0,  0,  0,  -11,  -27,  -36
1281216, 1710334513, "2024/3/13 12:55:13",  6,  -57,  1006,  0,  0,  0,  -11,  -26,  -35
1281416, 1710334513, "2024/3/13 12:55:13",  5,  -58,  1002,  0,  0,  0,  -12,  -25,  -36
1281616, 1710334513, "2024/3/13 12:55:13",  5,  -57,  1004,  0,  -1,  -1,  -12,  -25,  -36
1281816, 1710334513, "2024/3/13 12:55:13",  3,  -64,  1003,  0,  0,  -1,  -11,  -25,  -36
1282016, 1710334513, "2024/3/13 12:55:13",  7,  -56,  1006,  0,  0,  -1,  -11,  -27,  -35
1282216, 1710334514, "2024/3/13 12:55:14",  3,  -52,  1005,  0,  0,  -1,  -10,  -27,  -35
1282416, 1710334514, "2024/3/13 12:55:14",  8,  -51,  1007,  0,  0,  0,  -11,  -27,  -36
1282616, 1710334514, "2024/3/13 12:55:14",  6,  -53,  1001,  0,  0,  0,  -10,  -27,  -36
1282816, 1710334514, "2024/3/13 12:55:14",  0,  -59,  1001,  0,  0,  0,  -11,  -27,  -36
1283016, 1710334514, "2024/3/13 12:55:14",  8,  -55,  1002,  0,  0,  0,  -12,  -26,  -36
1283216, 1710334515, "2024/3/13 12:55:15",  0,  -56,  1002,  0,  -1,  -1,  -12,  -27,  -36
1283416, 1710334515, "2024/3/13 12:55:15",  7,  -64,  1000,  0,  0,  0,  -11,  -27,  -36
1283616, 1710334515, "2024/3/13 12:55:15",  4,  -55,  1000,  0,  0,  0,  -12,  -27,  -36
1283816, 1710334515, "2024/3/13 12:55:15",  4,  -57,  1009,  0,  0,  -1,  -10,  -26,  -36
1284016, 1710334515, "2024/3/13 12:55:15",  6,  -59,  1004,  0,  0,  -1,  -11,  -26,  -35
1284216, 1710334516, "2024/3/13 12:55:16",  5,  -60,  1000,  0,  0,  -1,  -10,  -25,  -35
1284416, 1710334516, "2024/3/13 12:55:16",  1,  -53,  999,  0,  0,  0,  -11,  -27,  -36
1284616, 1710334516, "2024/3/13 12:55:16",  0,  -57,  1008,  0,  0,  -1,  -12,  -25,  -37
1284816, 1710334516, "2024/3/13 12:55:16",  4,  -62,  1003,  0,  0,  -1,  -10,  -26,  -36
1285016, 1710334516, "2024/3/13 12:55:16",  4,  -62,  1004,  0,  0,  -1,  -12,  -26,  -36
1285216, 1710334517, "2024/3/13 12:55:17",  5,  -57,  1008,  0,  0,  -1,  -10,  -26,  -36
1285416, 1710334517, "2024/3/13 12:55:17",  9,  -57,  1004,  0,  0,  -1,  -11,  -26,  -35
1285616, 1710334517, "2024/3/13 12:55:17",  3,  -61,  1006,  0,  0,  -1,  -10,  -27,  -36
1285816, 1710334517, "2024/3/13 12:55:17",  4,  -57,  1002,  0,  0,  0,  -9,  -27,  -36
1286016, 1710334517, "2024/3/13 12:55:17",  7,  -56,  1004,  0,  0,  0,  -10,  -26,  -36
1286216, 1710334518, "2024/3/13 12:55:18",  3,  -55,  1005,  0,  0,  -1,  -12,  -25,  -36
1286416, 1710334518, "2024/3/13 12:55:18",  3,  -59,  1008,  0,  -1,  -1,  -12,  -26,  -36
1286616, 1710334518, "2024/3/13 12:55:18",  5,  -59,  1003,  0,  0,  -1,  -10,  -28,  -35
1286816, 1710334518, "2024/3/13 12:55:18",  5,  -58,  1005,  0,  0,  -1,  -10,  -25,  -36
1287016, 1710334518, "2024/3/13 12:55:18",  -2,  -58,  1003,  0,  -1,  0,  -10,  -27,  -37
1287216, 1710334519, "2024/3/13 12:55:19",  7,  -57,  1002,  0,  -1,  -1,  -12,  -26,  -35
1287416, 1710334519, "2024/3/13 12:55:19",  5,  -52,  1004,  0,  -1,  0,  -10,  -29,  -35
1287616, 1710334519, "2024/3/13 12:55:19",  5,  -65,  1002,  0,  0,  -1,  -12,  -27,  -36
1287816, 1710334519, "2024/3/13 12:55:19",  5,  -59,  1002,  0,  0,  -1,  -10,  -26,  -36
1288016, 1710334519, "2024/3/13 12:55:19",  -1,  -62,  1011,  0,  0,  -1,  -11,  -26,  -35
1288216, 1710334520, "2024/3/13 12:55:20",  10,  -58,  1008,  0,  0,  0,  -12,  -27,  -36
1288416, 1710334520, "2024/3/13 12:55:20",  2,  -55,  1005,  0,  0,  -1,  -11,  -27,  -36
1288616, 1710334520, "2024/3/13 12:55:20",  7,  -57,  1000,  0,  0,  -1,  -12,  -26,  -36
1288816, 1710334520, "2024/3/13 12:55:20",  2,  -60,  1003,  0,  0,  -1,  -10,  -27,  -35
1289016, 1710334520, "2024/3/13 12:55:20",  11,  -52,  1008,  0,  -1,  -1,  -11,  -26,  -34
1289216, 1710334521, "2024/3/13 12:55:21",  7,  -60,  1002,  0,  0,  0,  -10,  -25,  -37
1289416, 1710334521, "2024/3/13 12:55:21",  8,  -64,  1001,  0,  0,  0,  -11,  -26,  -36
1289616, 1710334521, "2024/3/13 12:55:21",  4,  -55,  1004,  0,  0,  0,  -10,  -26,  -37
1289816, 1710334521, "2024/3/13 12:55:21",  5,  -58,  1005,  0,  0,  -1,  -12,  -27,  -36
1290016, 1710334521, "2024/3/13 12:55:21",  9,  -59,  1001,  0,  -1,  -1,  -10,  -26,  -36
1290216, 1710334522, "2024/3/13 12:55:22",  7,  -53,  1001,  0,  0,  0,  -11,  -28,  -36
1290416, 1710334522, "2024/3/13 12:55:22",  11,  -56,  1000,  0,  0,  -1,  -12,  -26,  -36
1290616, 1710334522, "2024/3/13 12:55:22",  8,  -59,  1005,  0,  0,  -1,  -10,  -26,  -35
1290816, 1710334522, "2024/3/13 12:55:22",  6,  -59,  1003,  0,  -1,  -1,  -11,  -27,  -36
1291016, 1710334522, "2024/3/13 12:55:22",  2,  -60,  1003,  0,  0,  0,  -11,  -27,  -36
1291216, 1710334523, "2024/3/13 12:55:23",  -3,  -51,  1004,  0,  -1,  0,  -12,  -28,  -35
