millis,stamp,datetime,accX,accY,accZ,gyroX,gyroY,gyroZ,compX,compY,compZ
1847434, 1710335079, "2024/3/13 13:4:39",  8,  -56,  1004,  0,  0,  -1,  -10,  -24,  -38
1847634, 1710335079, "2024/3/13 13:4:39",  4,  -54,  1002,  0,  0,  -1,  -9,  -26,  -37
1847834, 1710335079, "2024/3/13 13:4:39",  8,  -55,  1002,  0,  0,  0,  -8,  -26,  -38
1848034, 1710335080, "2024/3/13 13:4:40",  7,  -50,  1003,  0,  0,  0,  -10,  -25,  -39
1848235, 1710335080, "2024/3/13 13:4:40",  3,  -53,  1000,  0,  0,  -1,  -10,  -26,  -38
1848435, 1710335080, "2024/3/13 13:4:40",  4,  -57,  1002,  0,  -1,  -1,  -9,  -26,  -37
1848635, 1710335080, "2024/3/13 13:4:40",  10,  -58,  1002,  0,  0,  -1,  -9,  -26,  -36
1848835, 1710335080, "2024/3/13 13:4:40",  5,  -57,  1005,  0,  0,  -1,  -9,  -27,  -36
1849035, 1710335081, "2024/3/13 13:4:41",  5,  -54,  1003,  0,  0,  -1,  -9,  -26,  -38
1849235, 1710335081, "2024/3/13 13:4:41",  4,  -55,  1004,  0,  -1,  -1,  -10,  -26,  -38
1849435, 1710335081, "2024/3/13 13:4:41",  4,  -63,  1005,  0,  0,  -1,  -11,  -27,  -38
1849635, 1710335081, "2024/3/13 13:4:41",  5,  -58,  1000,  0,  -1,  0,  -8,  -26,  -37
1849835, 1710335081, "2024/3/13 13:4:41",  4,  -57,  1004,  0,  0,  0,  -10,  -25,  -36
1850035, 1710335082, "2024/3/13 13:4:42",  8,  -55,  1003,  0,  0,  0,  -10,  -25,  -38
1850235, 1710335082, "2024/3/13 13:4:42",  5,  -51,  1002,  0,  0,  -1,  -9,  -26,  -36
1850435, 1710335082, "2024/3/13 13:4:42",  6,  -57,  1005,  0,  0,  -1,  -9,  -26,  -37
1850635, 1710335082, "2024/3/13 13:4:42",  6,  -59,  1004,  0,  0,  -1,  -9,  -25,  -37
1850835, 1710335082, "2024/3/13 13:4:42",  5,  -52,  1002,  0,  0,  0,  -9,  -27,  -37
1851035, 1710335083, "2024/3/13 13:4:43",  3,  -56,  1005,  0,  0,  0,  -9,  -27,  -37
1851235, 1710335083, "2024/3/13 13:4:43",  6,  -54,  1004,  0,  -1,  -1,  -9,  -26,  -37
1851435, 1710335083, "2024/3/13 13:4:43",  7,  -61,  1003,  0,  0,  0,  -9,  -25,  -37
1851635, 1710335083, "2024/3/13 13:4:43",  7,  -60,  1007,  0,  0,  -1,  -9,  -26,  -37
1851835, 1710335083, "2024/3/13 13:4:43",  9,  -60,  1005,  0,  0,  0,  -10,  -26,  -38
1852035, 1710335084, "2024/3/13 13:4:44",  6,  -53,  1010,  0,  0,  -1,  -10,  -26,  -38
1852235, 1710335084, "2024/3/13 13:4:44",  9,  -55,  1003,  0,  0,  0,  -10,  -24,  -37
1852435, 1710335084, "2024/3/13 13:4:44",  4,  -50,  1002,  0,  0,  0,  -10,  -27,  -36
1852635, 1710335084, "2024/3/13 13:4:44",  7,  -55,  1008,  0,  0,  -1,  -9,  -25,  -37
1852835, 1710335084, "2024/3/13 13:4:44",  5,  -59,  1006,  0,  0,  -1,  -9,  -26,  -37
1853035, 1710335085, "2024/3/13 13:4:45",  4,  -53,  1005,  0,  0,  -1,  -9,  -25,  -37
1853235, 1710335085, "2024/3/13 13:4:45",  11,  -56,  1007,  0,  0,  0,  -10,  -27,  -36
1853435, 1710335085, "2024/3/13 13:4:45",  10,  -60,  1005,  0,  0,  -1,  -11,  -25,  -37
1853635, 1710335085, "2024/3/13 13:4:45",  6,  -61,  1006,  0,  0,  0,  -8,  -25,  -37
1853835, 1710335085, "2024/3/13 13:4:45",  3,  -60,  1004,  0,  0,  -1,  -9,  -26,  -36
1854035, 1710335086, "2024/3/13 13:4:46",  3,  -62,  1002,  0,  0,  -1,  -9,  -26,  -38
1854235, 1710335086, "2024/3/13 13:4:46",  3,  -56,  1003,  0,  0,  -1,  -9,  -27,  -36
1854435, 1710335086, "2024/3/13 13:4:46",  3,  -59,  1003,  0,  0,  0,  -11,  -27,  -38
1854635, 1710335086, "2024/3/13 13:4:46",  1,  -60,  1004,  0,  0,  0,  -10,  -27,  -37
1854835, 1710335086, "2024/3/13 13:4:46",  2,  -62,  1005,  0,  0,  0,  -9,  -26,  -36
1855035, 1710335087, "2024/3/13 13:4:47",  5,  -58,  1001,  0,  0,  0,  -9,  -25,  -37
1855235, 1710335087, "2024/3/13 13:4:47",  3,  -58,  1002,  0,  -1,  0,  -9,  -26,  -38
1855435, 1710335087, "2024/3/13 13:4:47",  0,  -56,  1002,  0,  0,  0,  -10,  -26,  -37
1855635, 1710335087, "2024/3/13 13:4:47",  2,  -59,  1003,  0,  0,  -1,  -9,  -25,  -37
1855835, 1710335087, "2024/3/13 13:4:47",  6,  -57,  1001,  0,  0,  0,  -9,  -24,  -38
1856035, 1710335088, "2024/3/13 13:4:48",  2,  -54,  1005,  0,  -1,  -1,  -8,  -26,  -37
1856235, 1710335088, "2024/3/13 13:4:48",  6,  -55,  1003,  0,  0,  0,  -10,  -26,  -37
1856435, 1710335088, "2024/3/13 13:4:48",  7,  -56,  1004,  0,  0,  -1,  -10,  -25,  -37
1856635, 1710335088, "2024/3/13 13:4:48",  4,  -60,  1002,  0,  0,  0,  -9,  -25,  -39
1856835, 1710335088, "2024/3/13 13:4:48",  3,  -55,  1006,  0,  -1,  0,  -8,  -25,  -37
1857035, 1710335089, "2024/3/13 13:4:49",  7,  -60,  1005,  0,  -1,  -1,  -9,  -25,  -38
1857235, 1710335089, "2024/3/13 13:4:49",  3,  -62,  1006,  0,  0,  -1,  -8,  -24,  -37
1857435, 1710335089, "2024/3/13 13:4:49",  6,  -59,  1002,  0,  0,  -1,  -10,  -24,  -39
1857635, 1710335089, "2024/3/13 13:4:49",  5,  -56,  1001,  0,  0,  0,  -9,  -25,  -37
1857835, 1710335089, "2024/3/13 13:4:49",  8,  -60,  1006,  0,  -1,  -1,  -10,  -25,  -37
1858035, 1710335090, "2024/3/13 13:4:50",  3,  -56,  1000,  0,  0,  -1,  -9,  -25,  -37
1858235, 1710335090, "2024/3/13 13:4:50",  3,  -56,  1005,  0,  0,  -1,  -9,  -26,  -39
1858435, 1710335090, "2024/3/13 13:4:50",  6,  -61,  1004,  0,  0,  -1,  -8,  -26,  -38
1858635, 1710335090, "2024/3/13 13:4:50",  4,  -60,  1008,  0,  0,  0,  -9,  -26,  -37
1858835, 1710335090, "2024/3/13 13:4:50",  1,  -59,  1008,  0,  0,  0,  -9,  -26,  -37
1859035, 1710335091, "2024/3/13 13:4:51",  4,  -51,  1000,  0,  0,  0,  -10,  -25,  -37
1859235, 1710335091, "2024/3/13 13:4:51",  1,  -63,  1002,  0,  0,  -1,  -9,  -25,  -38
1859435, 1710335091, "2024/3/13 13:4:51",  2,  -57,  1003,  0,  0,  0,  -9,  -25,  -37
1859635, 1710335091, "2024/3/13 13:4:51",  4,  -57,  1003,  0,  0,  -1,  -9,  -25,  -37
1859835, 1710335091, "2024/3/13 13:4:51",  3,  -61,  1004,  0,  0,  0,  -10,  -26,  -36
1860035, 1710335092, "2024/3/13 13:4:52",  2,  -56,  1002,  0,  0,  -1,  -10,  -25,  -37
1860235, 1710335092, "2024/3/13 13:4:52",  3,  -57,  1005,  0,  0,  0,  -9,  -25,  -38
1860435, 1710335092, "2024/3/13 13:4:52",  5,  -62,  1002,  0,  0,  -1,  -9,  -26,  -36
1860635, 1710335092, "2024/3/13 13:4:52",  7,  -56,  1004,  0,  0,  -1,  -9,  -25,  -38
1860835, 1710335092, "2024/3/13 13:4:52",  4,  -59,  1002,  0,  0,  -1,  -10,  -25,  -37
1861035, 1710335093, "2024/3/13 13:4:53",  7,  -58,  1006,  0,  0,  -1,  -10,  -26,  -36
1861235, 1710335093, "2024/3/13 13:4:53",  5,  -63,  1003,  0,  -1,  -1,  -8,  -26,  -38
1861435, 1710335093, "2024/3/13 13:4:53",  4,  -61,  1000,  0,  0,  0,  -8,  -26,  -37
1861635, 1710335093, "2024/3/13 13:4:53",  5,  -58,  1000,  0,  0,  -1,  -8,  -27,  -38
1861835, 1710335093, "2024/3/13 13:4:53",  1,  -56,  1005,  0,  -1,  0,  -8,  -26,  -37
1862035, 1710335094, "2024/3/13 13:4:54",  1,  -59,  1002,  0,  0,  -1,  -9,  -24,  -36
1862235, 1710335094, "2024/3/13 13:4:54",  2,  -55,  1005,  0,  0,  -1,  -8,  -26,  -36
1862435, 1710335094, "2024/3/13 13:4:54",  0,  -64,  1003,  0,  0,  0,  -8,  -25,  -36
1862635, 1710335094, "2024/3/13 13:4:54",  4,  -58,  1005,  0,  0,  -1,  -8,  -27,  -36
1862835, 1710335094, "2024/3/13 13:4:54",  5,  -54,  1001,  0,  0,  0,  -10,  -25,  -38
1863035, 1710335095, "2024/3/13 13:4:55",  8,  -57,  1005,  0,  0,  0,  -11,  -26,  -36
1863235, 1710335095, "2024/3/13 13:4:55",  2,  -59,  1003,  0,  -1,  -1,  -9,  -25,  -38
1863435, 1710335095, "2024/3/13 13:4:55",  8,  -60,  1004,  0,  0,  -1,  -10,  -25,  -37
1863635, 1710335095, "2024/3/13 13:4:55",  -1,  -59,  1004,  0,  0,  -1,  -8,  -25,  -38
1863835, 1710335095, "2024/3/13 13:4:55",  6,  -53,  1002,  0,  0,  0,  -9,  -25,  -37
1864035, 1710335096, "2024/3/13 13:4:56",  2,  -57,  1003,  0,  -1,  -1,  -9,  -27,  -37
1864235, 1710335096, "2024/3/13 13:4:56",  8,  -53,  999,  0,  0,  0,  -8,  -27,  -37
1864435, 1710335096, "2024/3/13 13:4:56",  4,  -57,  1003,  0,  0,  -1,  -9,  -26,  -37
1864635, 1710335096, "2024/3/13 13:4:56",  9,  -59,  1007,  0,  0,  -1,  -10,  -26,  -37
1864835, 1710335096, "2024/3/13 13:4:56",  4,  -59,  1004,  0,  0,  -1,  -8,  -26,  -36
1865035, 1710335097, "2024/3/13 13:4:57",  5,  -57,  1006,  0,  -1,  -1,  -9,  -27,  -36
1865235, 1710335097, "2024/3/13 13:4:57",  6,  -57,  1004,  0,  0,  -1,  -9,  -25,  -37
1865435, 1710335097, "2024/3/13 13:4:57",  5,  -64,  1001,  0,  0,  -1,  -10,  -26,  -37
1865635, 1710335097, "2024/3/13 13:4:57",  7,  -56,  1005,  0,  0,  -1,  -8,  -27,  -37
1865835, 1710335097, "2024/3/13 13:4:57",  0,  -56,  1003,  0,  0,  0,  -8,  -27,  -37
1866035, 1710335098, "2024/3/13 13:4:58",  3,  -57,  1004,  0,  0,  0,  -8,  -27,  -36
1866235, 1710335098, "2024/3/13 13:4:58",  1,  -60,  1002,  0,  0,  -1,  -9,  -25,  -36
1866435, 1710335098, "2024/3/13 13:4:58",  8,  -57,  1001,  0,  0,  -1,  -11,  -24,  -36
1866635, 1710335098, "2024/3/13 13:4:58",  0,  -59,  1004,  0,  0,  0,  -9,  -25,  -37
1866835, 1710335098, "2024/3/13 13:4:58",  4,  -57,  1006,  0,  0,  0,  -10,  -26,  -38
1867035, 1710335099, "2024/3/13 13:4:59",  4,  -57,  1003,  0,  0,  -1,  -9,  -26,  -39
1867235, 1710335099, "2024/3/13 13:4:59",  -1,  -58,  1003,  0,  0,  -1,  -8,  -26,  -37
1867435, 1710335099, "2024/3/13 13:4:59",  5,  -59,  1005,  0,  0,  -1,  -10,  -26,  -37
1867635, 1710335099, "2024/3/13 13:4:59",  2,  -56,  999,  0,  0,  -1,  -10,  -26,  -37
1867835, 1710335099, "2024/3/13 13:4:59",  6,  -52,  1003,  0,  0,  0,  -9,  -26,  -36
1868035, 1710335100, "2024/3/13 13:5:0",  6,  -57,  1004,  0,  0,  0,  -8,  -25,  -36
1868235, 1710335100, "2024/3/13 13:5:0",  9,  -52,  1005,  0,  0,  0,  -10,  -26,  -37
1868435, 1710335100, "2024/3/13 13:5:0",  6,  -54,  1004,  0,  -1,  0,  -9,  -25,  -37
1868635, 1710335100, "2024/3/13 13:5:0",  1,  -58,  1005,  0,  0,  -1,  -8,  -26,  -37
1868835, 1710335100, "2024/3/13 13:5:0",  8,  -57,  1000,  0,  0,  0,  -10,  -26,  -38
1869035, 1710335101, "2024/3/13 13:5:1",  6,  -61,  1003,  0,  0,  0,  -10,  -26,  -37
1869235, 1710335101, "2024/3/13 13:5:1",  3,  -55,  1000,  0,  0,  0,  -10,  -24,  -36
1869435, 1710335101, "2024/3/13 13:5:1",  6,  -59,  1001,  0,  0,  -1,  -10,  -26,  -36
1869635, 1710335101, "2024/3/13 13:5:1",  7,  -62,  1005,  0,  0,  -1,  -9,  -25,  -39
1869835, 1710335101, "2024/3/13 13:5:1",  1,  -60,  1005,  0,  0,  -1,  -9,  -25,  -38
1870035, 1710335102, "2024/3/13 13:5:2",  2,  -63,  1004,  0,  0,  -1,  -9,  -26,  -37
1870235, 1710335102, "2024/3/13 13:5:2",  5,  -58,  1005,  0,  0,  -1,  -9,  -26,  -36
1870435, 1710335102, "2024/3/13 13:5:2",  4,  -61,  1006,  0,  0,  -1,  -10,  -26,  -36
1870635, 1710335102, "2024/3/13 13:5:2",  4,  -62,  1004,  0,  0,  -1,  -9,  -27,  -38
1870835, 1710335102, "2024/3/13 13:5:2",  3,  -53,  1001,  0,  0,  0,  -9,  -26,  -37
1871035, 1710335103, "2024/3/13 13:5:3",  7,  -57,  1008,  0,  0,  0,  -11,  -25,  -37
1871235, 1710335103, "2024/3/13 13:5:3",  -1,  -57,  1000,  0,  0,  0,  -9,  -25,  -37
1871435, 1710335103, "2024/3/13 13:5:3",  4,  -50,  1004,  0,  0,  -1,  -10,  -24,  -36
1871635, 1710335103, "2024/3/13 13:5:3",  6,  -56,  1001,  0,  0,  0,  -8,  -27,  -36
1871835, 1710335103, "2024/3/13 13:5:3",  4,  -58,  1000,  0,  0,  -1,  -9,  -27,  -36
1872035, 1710335104, "2024/3/13 13:5:4",  4,  -55,  1001,  0,  0,  -1,  -9,  -25,  -36
1872235, 1710335104, "2024/3/13 13:5:4",  3,  -59,  1004,  0,  0,  -1,  -9,  -26,  -37
1872435, 1710335104, "2024/3/13 13:5:4",  3,  -63,  1003,  0,  0,  -1,  -9,  -27,  -36
1872635, 1710335104, "2024/3/13 13:5:4",  7,  -62,  1004,  0,  0,  -1,  -12,  -25,  -38
1872835, 1710335104, "2024/3/13 13:5:4",  5,  -54,  1005,  0,  -1,  0,  -9,  -25,  -38
1873035, 1710335105, "2024/3/13 13:5:5",  2,  -52,  1004,  0,  0,  0,  -10,  -26,  -38
1873235, 1710335105, "2024/3/13 13:5:5",  3,  -58,  1003,  0,  0,  0,  -10,  -26,  -37
1873435, 1710335105, "2024/3/13 13:5:5",  4,  -62,  1001,  0,  0,  0,  -9,  -27,  -38
1873635, 1710335105, "2024/3/13 13:5:5",  2,  -59,  1006,  0,  0,  0,  -9,  -25,  -36
1873835, 1710335105, "2024/3/13 13:5:5",  4,  -53,  999,  0,  -1,  -1,  -9,  -26,  -38
1874035, 1710335106, "2024/3/13 13:5:6",  2,  -59,  1006,  0,  0,  0,  -10,  -26,  -37
1874235, 1710335106, "2024/3/13 13:5:6",  5,  -55,  1002,  0,  0,  -1,  -9,  -26,  -36
1874435, 1710335106, "2024/3/13 13:5:6",  3,  -57,  1001,  0,  0,  -1,  -10,  -27,  -35
1874635, 1710335106, "2024/3/13 13:5:6",  7,  -59,  1005,  0,  0,  -1,  -9,  -28,  -36
1874835, 1710335106, "2024/3/13 13:5:6",  1,  -51,  1002,  0,  0,  0,  -9,  -28,  -36
1875035, 1710335107, "2024/3/13 13:5:7",  6,  -57,  1003,  0,  -1,  0,  -9,  -25,  -36
1875235, 1710335107, "2024/3/13 13:5:7",  7,  -57,  1004,  0,  0,  -1,  -9,  -25,  -38
1875435, 1710335107, "2024/3/13 13:5:7",  7,  -59,  1005,  0,  0,  -1,  -9,  -26,  -37
1875635, 1710335107, "2024/3/13 13:5:7",  4,  -60,  1002,  0,  0,  0,  -9,  -26,  -38
1875835, 1710335107, "2024/3/13 13:5:7",  6,  -53,  1002,  0,  0,  -1,  -9,  -24,  -37
1876035, 1710335108, "2024/3/13 13:5:8",  7,  -60,  1000,  0,  0,  0,  -10,  -25,  -38
1876235, 1710335108, "2024/3/13 13:5:8",  7,  -61,  1003,  0,  0,  -1,  -10,  -26,  -38
1876435, 1710335108, "2024/3/13 13:5:8",  8,  -54,  1002,  0,  0,  0,  -9,  -27,  -38
1876635, 1710335108, "2024/3/13 13:5:8",  1,  -56,  1006,  0,  0,  -1,  -10,  -27,  -38
1876835, 1710335108, "2024/3/13 13:5:8",  5,  -55,  1005,  0,  0,  0,  -8,  -25,  -37
1877035, 1710335109, "2024/3/13 13:5:9",  2,  -59,  1002,  0,  0,  -1,  -10,  -25,  -36
1877235, 1710335109, "2024/3/13 13:5:9",  2,  -56,  1000,  0,  0,  0,  -10,  -27,  -37
1877435, 1710335109, "2024/3/13 13:5:9",  7,  -53,  1006,  0,  0,  0,  -10,  -25,  -37
1877635, 1710335109, "2024/3/13 13:5:9",  2,  -60,  1003,  0,  0,  0,  -10,  -26,  -38
1877835, 1710335109, "2024/3/13 13:5:9",  6,  -56,  1004,  0,  0,  0,  -10,  -26,  -37
1878035, 1710335110, "2024/3/13 13:5:10",  5,  -59,  1004,  0,  0,  -1,  -8,  -26,  -36
1878235, 1710335110, "2024/3/13 13:5:10",  2,  -58,  1001,  0,  0,  -1,  -10,  -27,  -37
1878435, 1710335110, "2024/3/13 13:5:10",  5,  -59,  1005,  0,  0,  -1,  -9,  -27,  -37
1878635, 1710335110, "2024/3/13 13:5:10",  7,  -58,  1001,  0,  0,  -1,  -10,  -27,  -37
1878835, 1710335110, "2024/3/13 13:5:10",  4,  -66,  1005,  0,  0,  -1,  -8,  -27,  -37
1879035, 1710335111, "2024/3/13 13:5:11",  6,  -60,  1001,  0,  -1,  0,  -10,  -26,  -36
1879235, 1710335111, "2024/3/13 13:5:11",  6,  -56,  1003,  0,  0,  -1,  -8,  -27,  -37
1879435, 1710335111, "2024/3/13 13:5:11",  3,  -57,  1000,  0,  0,  -1,  -9,  -25,  -39
1879635, 1710335111, "2024/3/13 13:5:11",  8,  -58,  1004,  0,  0,  0,  -9,  -27,  -37
1879835, 1710335111, "2024/3/13 13:5:11",  5,  -59,  1004,  0,  0,  0,  -9,  -26,  -37
1880035, 1710335112, "2024/3/13 13:5:12",  4,  -61,  1005,  0,  0,  0,  -10,  -26,  -39
1880235, 1710335112, "2024/3/13 13:5:12",  4,  -60,  1006,  0,  0,  -1,  -10,  -26,  -37
1880435, 1710335112, "2024/3/13 13:5:12",  4,  -57,  1005,  0,  0,  -1,  -11,  -27,  -38
1880635, 1710335112, "2024/3/13 13:5:12",  7,  -58,  1005,  0,  0,  -1,  -10,  -27,  -39
1880835, 1710335112, "2024/3/13 13:5:12",  6,  -62,  1004,  0,  0,  -1,  -9,  -25,  -39
1881035, 1710335113, "2024/3/13 13:5:13",  4,  -56,  1003,  0,  0,  0,  -10,  -25,  -39
1881235, 1710335113, "2024/3/13 13:5:13",  -3,  -59,  1006,  0,  0,  0,  -9,  -26,  -40
1881435, 1710335113, "2024/3/13 13:5:13",  5,  -56,  1001,  0,  0,  -1,  -11,  -25,  -36
1881635, 1710335113, "2024/3/13 13:5:13",  0,  -54,  1001,  0,  0,  0,  -10,  -25,  -39
1881835, 1710335113, "2024/3/13 13:5:13",  5,  -55,  1006,  0,  -1,  0,  -9,  -25,  -38
1882035, 1710335114, "2024/3/13 13:5:14",  3,  -52,  1000,  0,  0,  -1,  -9,  -26,  -37
1882235, 1710335114, "2024/3/13 13:5:14",  5,  -58,  1006,  0,  0,  -1,  -9,  -26,  -37
1882435, 1710335114, "2024/3/13 13:5:14",  6,  -54,  1005,  0,  0,  -1,  -8,  -25,  -36
1882635, 1710335114, "2024/3/13 13:5:14",  7,  -61,  1003,  0,  0,  -1,  -9,  -25,  -37
1882835, 1710335114, "2024/3/13 13:5:14",  0,  -57,  1004,  0,  0,  -1,  -9,  -25,  -37
1883035, 1710335115, "2024/3/13 13:5:15",  6,  -61,  1002,  0,  0,  -1,  -9,  -27,  -37
1883235, 1710335115, "2024/3/13 13:5:15",  4,  -57,  1004,  0,  0,  -1,  -10,  -25,  -38
1883435, 1710335115, "2024/3/13 13:5:15",  3,  -54,  1007,  0,  0,  -1,  -9,  -25,  -38
1883635, 1710335115, "2024/3/13 13:5:15",  6,  -61,  1001,  0,  0,  0,  -9,  -26,  -37
1883835, 1710335115, "2024/3/13 13:5:15",  9,  -55,  1002,  0,  0,  0,  -11,  -26,  -38
1884035, 1710335116, "2024/3/13 13:5:16",  4,  -60,  1004,  0,  0,  -1,  -9,  -25,  -40
1884235, 1710335116, "2024/3/13 13:5:16",  7,  -59,  1006,  0,  -1,  -1,  -8,  -26,  -37
1884435, 1710335116, "2024/3/13 13:5:16",  8,  -59,  1001,  0,  0,  0,  -8,  -24,  -38
1884635, 1710335116, "2024/3/13 13:5:16",  6,  -56,  1006,  0,  0,  0,  -10,  -26,  -39
1884835, 1710335116, "2024/3/13 13:5:16",  8,  -52,  1001,  0,  -1,  -1,  -8,  -26,  -38
1885035, 1710335117, "2024/3/13 13:5:17",  11,  -60,  1002,  0,  -1,  -1,  -11,  -26,  -38
1885235, 1710335117, "2024/3/13 13:5:17",  6,  -61,  1005,  0,  0,  -1,  -8,  -25,  -36
1885435, 1710335117, "2024/3/13 13:5:17",  7,  -56,  1003,  0,  0,  -1,  -9,  -27,  -37
1885635, 1710335117, "2024/3/13 13:5:17",  7,  -61,  1001,  0,  0,  -1,  -10,  -26,  -37
1885835, 1710335117, "2024/3/13 13:5:17",  6,  -57,  1001,  0,  -1,  -1,  -9,  -27,  -38
1886035, 1710335118, "2024/3/13 13:5:18",  8,  -56,  1002,  0,  0,  0,  -11,  -27,  -37
1886235, 1710335118, "2024/3/13 13:5:18",  2,  -57,  1006,  0,  0,  -1,  -9,  -28,  -37
1886435, 1710335118, "2024/3/13 13:5:18",  0,  -66,  1003,  0,  0,  0,  -9,  -27,  -39
1886635, 1710335118, "2024/3/13 13:5:18",  -7,  -60,  1001,  0,  0,  -1,  -8,  -28,  -37
1886835, 1710335118, "2024/3/13 13:5:18",  -6,  -61,  1007,  0,  0,  0,  -9,  -27,  -39
1887035, 1710335119, "2024/3/13 13:5:19",  -2,  -57,  1001,  0,  0,  -1,  -9,  -27,  -37
1887235, 1710335119, "2024/3/13 13:5:19",  -2,  -59,  1003,  0,  0,  -1,  -8,  -25,  -38
1887435, 1710335119, "2024/3/13 13:5:19",  5,  -58,  1008,  0,  -1,  0,  -9,  -27,  -37
1887635, 1710335119, "2024/3/13 13:5:19",  4,  -55,  1003,  0,  0,  0,  -9,  -26,  -39
1887835, 1710335119, "2024/3/13 13:5:19",  5,  -59,  1004,  0,  0,  -1,  -8,  -27,  -39
1888035, 1710335120, "2024/3/13 13:5:20",  6,  -55,  1001,  0,  0,  -1,  -10,  -26,  -38
1888235, 1710335120, "2024/3/13 13:5:20",  5,  -63,  1002,  0,  0,  0,  -9,  -25,  -37
1888435, 1710335120, "2024/3/13 13:5:20",  10,  -60,  1008,  0,  0,  0,  -9,  -26,  -37
1888635, 1710335120, "2024/3/13 13:5:20",  7,  -56,  1003,  0,  0,  0,  -10,  -26,  -38
1888835, 1710335120, "2024/3/13 13:5:20",  4,  -56,  1008,  0,  0,  -1,  -10,  -26,  -37
1889035, 1710335121, "2024/3/13 13:5:21",  4,  -56,  1004,  0,  0,  -1,  -9,  -27,  -38
1889235, 1710335121, "2024/3/13 13:5:21",  6,  -56,  1005,  0,  0,  -1,  -9,  -25,  -39
1889435, 1710335121, "2024/3/13 13:5:21",  3,  -59,  1000,  0,  0,  -1,  -9,  -26,  -37
1889635, 1710335121, "2024/3/13 13:5:21",  1,  -54,  1003,  0,  0,  0,  -9,  -24,  -37
1889835, 1710335121, "2024/3/13 13:5:21",  1,  -56,  1007,  0,  0,  0,  -9,  -24,  -39
1890035, 1710335122, "2024/3/13 13:5:22",  3,  -58,  997,  0,  0,  -1,  -9,  -24,  -37
1890235, 1710335122, "2024/3/13 13:5:22",  10,  -60,  1002,  0,  0,  -1,  -11,  -25,  -37
1890435, 1710335122, "2024/3/13 13:5:22",  1,  -59,  1001,  0,  -1,  -1,  -9,  -26,  -36
1890635, 1710335122, "2024/3/13 13:5:22",  7,  -57,  1002,  0,  -1,  -1,  -9,  -25,  -37
1890835, 1710335122, "2024/3/13 13:5:22",  5,  -58,  1000,  0,  0,  0,  -9,  -25,  -37
1891035, 1710335123, "2024/3/13 13:5:23",  6,  -61,  1007,  0,  0,  -1,  -9,  -25,  -38
1891235, 1710335123, "2024/3/13 13:5:23",  5,  -60,  1005,  0,  0,  -1,  -9,  -26,  -36
1891435, 1710335123, "2024/3/13 13:5:23",  0,  -52,  1001,  0,  0,  0,  -9,  -26,  -37
1891635, 1710335123, "2024/3/13 13:5:23",  5,  -61,  1004,  0,  0,  -1,  -10,  -27,  -37
1891835, 1710335124, "2024/3/13 13:5:24",  5,  -60,  1005,  0,  0,  0,  -9,  -25,  -37
1892035, 1710335124, "2024/3/13 13:5:24",  1,  -63,  1007,  0,  0,  0,  -9,  -28,  -38
1892235, 1710335124, "2024/3/13 13:5:24",  3,  -58,  1003,  0,  0,  0,  -9,  -25,  -38
1892435, 1710335124, "2024/3/13 13:5:24",  1,  -59,  1000,  0,  0,  -1,  -9,  -25,  -37
1892635, 1710335124, "2024/3/13 13:5:24",  4,  -61,  1003,  0,  0,  0,  -9,  -25,  -38
1892835, 1710335125, "2024/3/13 13:5:25",  5,  -60,  1005,  0,  0,  -1,  -10,  -25,  -38
1893035, 1710335125, "2024/3/13 13:5:25",  6,  -50,  1001,  0,  -1,  -1,  -10,  -26,  -37
1893235, 1710335125, "2024/3/13 13:5:25",  2,  -57,  1001,  0,  0,  -1,  -10,  -25,  -37
1893435, 1710335125, "2024/3/13 13:5:25",  3,  -61,  1005,  0,  0,  -1,  -9,  -25,  -38
1893635, 1710335125, "2024/3/13 13:5:25",  2,  -57,  1004,  0,  -1,  0,  -10,  -26,  -37
1893835, 1710335126, "2024/3/13 13:5:26",  4,  -57,  1002,  0,  0,  -1,  -9,  -26,  -39
1894035, 1710335126, "2024/3/13 13:5:26",  1,  -62,  1006,  0,  0,  0,  -9,  -26,  -38
1894235, 1710335126, "2024/3/13 13:5:26",  1,  -54,  1007,  0,  -1,  0,  -8,  -24,  -37
1894435, 1710335126, "2024/3/13 13:5:26",  6,  -59,  1004,  0,  0,  0,  -10,  -25,  -39
1894635, 1710335126, "2024/3/13 13:5:26",  3,  -59,  1005,  0,  0,  0,  -10,  -26,  -37
1894835, 1710335127, "2024/3/13 13:5:27",  5,  -65,  1002,  0,  0,  -1,  -10,  -25,  -38
1895035, 1710335127, "2024/3/13 13:5:27",  3,  -59,  1004,  0,  0,  0,  -10,  -26,  -37
1895235, 1710335127, "2024/3/13 13:5:27",  1,  -63,  1001,  0,  0,  0,  -9,  -25,  -37
1895435, 1710335127, "2024/3/13 13:5:27",  7,  -62,  1002,  0,  0,  -1,  -8,  -26,  -37
1895635, 1710335127, "2024/3/13 13:5:27",  2,  -59,  1004,  0,  0,  0,  -7,  -26,  -38
1895835, 1710335128, "2024/3/13 13:5:28",  4,  -54,  1007,  0,  -1,  -1,  -10,  -25,  -38
1896035, 1710335128, "2024/3/13 13:5:28",  0,  -50,  1005,  0,  0,  -1,  -9,  -25,  -39
1896235, 1710335128, "2024/3/13 13:5:28",  7,  -60,  1010,  0,  0,  -1,  -9,  -26,  -37
1896435, 1710335128, "2024/3/13 13:5:28",  8,  -55,  999,  0,  0,  0,  -10,  -27,  -37
1896635, 1710335128, "2024/3/13 13:5:28",  7,  -58,  1003,  0,  0,  0,  -10,  -25,  -37
1896835, 1710335129, "2024/3/13 13:5:29",  3,  -57,  1003,  0,  0,  -1,  -10,  -25,  -36
1897035, 1710335129, "2024/3/13 13:5:29",  1,  -59,  1005,  0,  -1,  -1,  -9,  -26,  -36
1897235, 1710335129, "2024/3/13 13:5:29",  2,  -63,  1005,  0,  0,  -1,  -9,  -26,  -36
1897435, 1710335129, "2024/3/13 13:5:29",  3,  -55,  1002,  0,  0,  -1,  -9,  -24,  -37
1897635, 1710335129, "2024/3/13 13:5:29",  6,  -64,  1008,  0,  0,  0,  -10,  -26,  -38
1897835, 1710335130, "2024/3/13 13:5:30",  6,  -59,  1003,  0,  0,  0,  -10,  -25,  -39
1898035, 1710335130, "2024/3/13 13:5:30",  5,  -61,  1003,  0,  0,  0,  -10,  -25,  -38
1898235, 1710335130, "2024/3/13 13:5:30",  4,  -55,  1004,  0,  0,  -1,  -8,  -26,  -36
1898435, 1710335130, "2024/3/13 13:5:30",  4,  -60,  1003,  0,  0,  -1,  -9,  -25,  -38
1898635, 1710335130, "2024/3/13 13:5:30",  2,  -57,  1005,  0,  0,  -1,  -10,  -25,  -36
1898835, 1710335131, "2024/3/13 13:5:31",  5,  -54,  1003,  0,  0,  0,  -8,  -26,  -39
1899035, 1710335131, "2024/3/13 13:5:31",  4,  -62,  1006,  0,  0,  -1,  -6,  -27,  -37
1899235, 1710335131, "2024/3/13 13:5:31",  5,  -54,  1001,  0,  0,  -1,  -10,  -27,  -37
1899435, 1710335131, "2024/3/13 13:5:31",  8,  -56,  1004,  0,  -1,  0,  -9,  -26,  -37
1899635, 1710335131, "2024/3/13 13:5:31",  7,  -57,  1003,  0,  0,  0,  -9,  -26,  -38
1899835, 1710335132, "2024/3/13 13:5:32",  0,  -59,  1005,  0,  0,  -1,  -10,  -26,  -37
1900035, 1710335132, "2024/3/13 13:5:32",  0,  -60,  1002,  0,  0,  -1,  -11,  -27,  -37
1900235, 1710335132, "2024/3/13 13:5:32",  4,  -56,  1003,  0,  0,  -1,  -9,  -26,  -37
1900435, 1710335132, "2024/3/13 13:5:32",  6,  -53,  1006,  0,  0,  0,  -9,  -26,  -37
1900635, 1710335132, "2024/3/13 13:5:32",  2,  -61,  1003,  0,  0,  -1,  -10,  -27,  -38
1900835, 1710335133, "2024/3/13 13:5:33",  8,  -58,  1004,  0,  0,  -1,  -10,  -26,  -38
1901035, 1710335133, "2024/3/13 13:5:33",  5,  -56,  1002,  0,  0,  -1,  -9,  -25,  -36
1901235, 1710335133, "2024/3/13 13:5:33",  3,  -56,  1001,  0,  0,  0,  -10,  -27,  -38
1901435, 1710335133, "2024/3/13 13:5:33",  6,  -53,  1004,  0,  0,  0,  -9,  -26,  -37
1901635, 1710335133, "2024/3/13 13:5:33",  2,  -56,  1006,  0,  0,  -1,  -8,  -26,  -38
1901835, 1710335134, "2024/3/13 13:5:34",  3,  -62,  1001,  0,  -1,  0,  -10,  -25,  -39
1902035, 1710335134, "2024/3/13 13:5:34",  4,  -61,  1004,  0,  0,  -1,  -10,  -25,  -38
1902235, 1710335134, "2024/3/13 13:5:34",  3,  -60,  1004,  0,  0,  -1,  -10,  -25,  -39
1902435, 1710335134, "2024/3/13 13:5:34",  11,  -54,  1007,  0,  0,  -1,  -11,  -27,  -39
1902635, 1710335134, "2024/3/13 13:5:34",  6,  -55,  1003,  0,  0,  -1,  -9,  -26,  -38
1902835, 1710335135, "2024/3/13 13:5:35",  7,  -52,  1003,  0,  0,  -1,  -9,  -26,  -37
1903035, 1710335135, "2024/3/13 13:5:35",  4,  -61,  1007,  0,  0,  -1,  -9,  -25,  -38
1903235, 1710335135, "2024/3/13 13:5:35",  5,  -50,  1004,  0,  0,  0,  -11,  -27,  -37
1903435, 1710335135, "2024/3/13 13:5:35",  7,  -59,  1000,  0,  -1,  -1,  -9,  -26,  -37
1903635, 1710335135, "2024/3/13 13:5:35",  3,  -57,  1003,  0,  0,  0,  -10,  -26,  -39
1903835, 1710335136, "2024/3/13 13:5:36",  1,  -56,  1007,  0,  0,  0,  -9,  -25,  -38
1904035, 1710335136, "2024/3/13 13:5:36",  6,  -53,  1003,  0,  0,  -1,  -9,  -25,  -36
1904235, 1710335136, "2024/3/13 13:5:36",  6,  -63,  1002,  0,  0,  -1,  -9,  -26,  -38
1904435, 1710335136, "2024/3/13 13:5:36",  6,  -61,  1004,  0,  0,  0,  -9,  -26,  -39
1904635, 1710335136, "2024/3/13 13:5:36",  2,  -56,  1004,  0,  0,  0,  -10,  -24,  -38
1904835, 1710335137, "2024/3/13 13:5:37",  3,  -61,  1005,  0,  -1,  0,  -8,  -26,  -36
1905035, 1710335137, "2024/3/13 13:5:37",  1,  -57,  1007,  0,  0,  -1,  -8,  -25,  -38
1905235, 1710335137, "2024/3/13 13:5:37",  3,  -55,  1002,  0,  0,  -1,  -9,  -24,  -39
1905435, 1710335137, "2024/3/13 13:5:37",  6,  -58,  1003,  0,  0,  -1,  -10,  -26,  -37
1905635, 1710335137, "2024/3/13 13:5:37",  2,  -56,  1004,  0,  0,  -1,  -10,  -27,  -39
1905835, 1710335138, "2024/3/13 13:5:38",  3,  -59,  1001,  0,  0,  -1,  -10,  -26,  -39
1906035, 1710335138, "2024/3/13 13:5:38",  5,  -57,  1008,  0,  0,  0,  -10,  -25,  -37
1906235, 1710335138, "2024/3/13 13:5:38",  7,  -59,  1000,  0,  0,  0,  -9,  -26,  -38
1906435, 1710335138, "2024/3/13 13:5:38",  3,  -56,  1005,  0,  0,  -1,  -10,  -26,  -37
1906635, 1710335138, "2024/3/13 13:5:38",  3,  -56,  1000,  0,  0,  -1,  -9,  -26,  -38
1906835, 1710335139, "2024/3/13 13:5:39",  4,  -56,  1004,  0,  0,  0,  -9,  -26,  -37
1907035, 1710335139, "2024/3/13 13:5:39",  9,  -61,  1001,  0,  0,  -1,  -9,  -26,  -38
1907235, 1710335139, "2024/3/13 13:5:39",  6,  -57,  1000,  0,  0,  0,  -10,  -26,  -37
1907435, 1710335139, "2024/3/13 13:5:39",  3,  -59,  1000,  0,  0,  0,  -12,  -25,  -37
1907635, 1710335139, "2024/3/13 13:5:39",  5,  -61,  1008,  0,  0,  0,  -8,  -27,  -36
1907835, 1710335140, "2024/3/13 13:5:40",  4,  -56,  1005,  0,  0,  -1,  -8,  -26,  -37
1908035, 1710335140, "2024/3/13 13:5:40",  6,  -64,  1001,  0,  0,  0,  -8,  -27,  -38
1908235, 1710335140, "2024/3/13 13:5:40",  6,  -54,  1004,  0,  0,  -1,  -11,  -25,  -37
1908435, 1710335140, "2024/3/13 13:5:40",  4,  -58,  1004,  0,  0,  0,  -10,  -26,  -39
1908635, 1710335140, "2024/3/13 13:5:40",  1,  -53,  1000,  0,  0,  -1,  -9,  -25,  -37
1908835, 1710335141, "2024/3/13 13:5:41",  6,  -56,  1006,  0,  -1,  -1,  -10,  -26,  -39
1909035, 1710335141, "2024/3/13 13:5:41",  5,  -65,  1005,  0,  0,  -1,  -10,  -27,  -38
1909235, 1710335141, "2024/3/13 13:5:41",  2,  -59,  1005,  0,  0,  0,  -10,  -26,  -38
1909435, 1710335141, "2024/3/13 13:5:41",  2,  -60,  1002,  0,  0,  -1,  -9,  -26,  -37
1909635, 1710335141, "2024/3/13 13:5:41",  3,  -54,  1000,  0,  0,  -1,  -8,  -25,  -37
1909835, 1710335142, "2024/3/13 13:5:42",  4,  -56,  1006,  0,  0,  0,  -10,  -26,  -37
1910035, 1710335142, "2024/3/13 13:5:42",  6,  -62,  1002,  0,  0,  0,  -10,  -25,  -38
1910235, 1710335142, "2024/3/13 13:5:42",  5,  -61,  1004,  0,  0,  0,  -9,  -27,  -37
1910435, 1710335142, "2024/3/13 13:5:42",  3,  -59,  1004,  0,  0,  -1,  -11,  -26,  -37
1910635, 1710335142, "2024/3/13 13:5:42",  8,  -57,  1000,  0,  0,  0,  -8,  -26,  -37
1910835, 1710335143, "2024/3/13 13:5:43",  4,  -55,  1006,  0,  -1,  0,  -8,  -24,  -38
1911035, 1710335143, "2024/3/13 13:5:43",  1,  -50,  996,  0,  0,  -1,  -10,  -25,  -37
1911235, 1710335143, "2024/3/13 13:5:43",  3,  -61,  999,  0,  0,  0,  -9,  -28,  -37
1911435, 1710335143, "2024/3/13 13:5:43",  9,  -54,  1002,  0,  0,  0,  -9,  -26,  -38
1911635, 1710335143, "2024/3/13 13:5:43",  2,  -53,  1005,  0,  -1,  -1,  -9,  -25,  -38
1911835, 1710335144, "2024/3/13 13:5:44",  2,  -59,  1005,  0,  0,  0,  -9,  -25,  -38
1912035, 1710335144, "2024/3/13 13:5:44",  3,  -55,  1004,  0,  0,  -1,  -7,  -26,  -37
1912235, 1710335144, "2024/3/13 13:5:44",  8,  -55,  1006,  0,  0,  -1,  -10,  -26,  -39
1912435, 1710335144, "2024/3/13 13:5:44",  3,  -57,  1003,  0,  0,  -1,  -9,  -24,  -37
1912635, 1710335144, "2024/3/13 13:5:44",  7,  -60,  1006,  0,  0,  -1,  -11,  -24,  -37
1912835, 1710335145, "2024/3/13 13:5:45",  6,  -54,  1001,  0,  0,  -1,  -9,  -24,  -39
1913035, 1710335145, "2024/3/13 13:5:45",  4,  -56,  1005,  0,  0,  -1,  -9,  -26,  -39
1913235, 1710335145, "2024/3/13 13:5:45",  4,  -61,  1000,  0,  0,  -1,  -9,  -26,  -39
1913435, 1710335145, "2024/3/13 13:5:45",  6,  -63,  1006,  0,  0,  -1,  -9,  -27,  -37
1913635, 1710335145, "2024/3/13 13:5:45",  6,  -53,  1002,  0,  0,  -1,  -10,  -25,  -39
1913835, 1710335146, "2024/3/13 13:5:46",  7,  -63,  1006,  0,  0,  0,  -8,  -26,  -37
1914035, 1710335146, "2024/3/13 13:5:46",  4,  -57,  1002,  0,  0,  -1,  -9,  -25,  -38
1914235, 1710335146, "2024/3/13 13:5:46",  3,  -60,  1004,  0,  0,  -1,  -9,  -28,  -37
1914435, 1710335146, "2024/3/13 13:5:46",  7,  -53,  1008,  0,  0,  -1,  -10,  -25,  -37
1914635, 1710335146, "2024/3/13 13:5:46",  4,  -58,  1005,  0,  0,  0,  -10,  -26,  -36
1914835, 1710335147, "2024/3/13 13:5:47",  5,  -53,  1007,  0,  0,  -1,  -10,  -25,  -37
1915035, 1710335147, "2024/3/13 13:5:47",  1,  -61,  1004,  0,  -1,  -1,  -10,  -25,  -37
1915235, 1710335147, "2024/3/13 13:5:47",  6,  -58,  1001,  0,  0,  0,  -9,  -25,  -39
1915435, 1710335147, "2024/3/13 13:5:47",  4,  -53,  1004,  0,  -1,  -1,  -10,  -26,  -39
1915635, 1710335147, "2024/3/13 13:5:47",  3,  -59,  1004,  0,  0,  0,  -9,  -25,  -39
1915835, 1710335148, "2024/3/13 13:5:48",  3,  -60,  1004,  0,  -1,  -1,  -9,  -25,  -38
1916035, 1710335148, "2024/3/13 13:5:48",  4,  -60,  1007,  0,  0,  0,  -11,  -25,  -38
1916235, 1710335148, "2024/3/13 13:5:48",  3,  -55,  1007,  0,  0,  0,  -8,  -26,  -38
1916435, 1710335148, "2024/3/13 13:5:48",  4,  -61,  1002,  0,  0,  -1,  -7,  -26,  -37
1916635, 1710335148, "2024/3/13 13:5:48",  1,  -51,  1001,  0,  0,  0,  -10,  -27,  -37
1916835, 1710335149, "2024/3/13 13:5:49",  7,  -59,  1000,  0,  0,  -1,  -9,  -28,  -38
1917035, 1710335149, "2024/3/13 13:5:49",  6,  -60,  1001,  0,  0,  -1,  -9,  -27,  -36
1917235, 1710335149, "2024/3/13 13:5:49",  3,  -57,  999,  0,  0,  -1,  -9,  -27,  -38
1917435, 1710335149, "2024/3/13 13:5:49",  3,  -53,  1000,  0,  0,  0,  -9,  -24,  -37
1917635, 1710335149, "2024/3/13 13:5:49",  4,  -62,  1004,  0,  0,  -1,  -10,  -26,  -37
1917835, 1710335150, "2024/3/13 13:5:50",  6,  -51,  1002,  0,  0,  0,  -7,  -25,  -39
1918035, 1710335150, "2024/3/13 13:5:50",  0,  -59,  1003,  0,  0,  0,  -10,  -26,  -38
1918235, 1710335150, "2024/3/13 13:5:50",  7,  -52,  1006,  0,  0,  0,  -9,  -26,  -37
1918435, 1710335150, "2024/3/13 13:5:50",  4,  -64,  1002,  0,  -1,  -1,  -10,  -25,  -38
1918635, 1710335150, "2024/3/13 13:5:50",  4,  -53,  1004,  0,  0,  -1,  -9,  -27,  -37
1918835, 1710335151, "2024/3/13 13:5:51",  4,  -59,  999,  0,  0,  -1,  -9,  -26,  -37
1919035, 1710335151, "2024/3/13 13:5:51",  4,  -57,  1002,  0,  0,  0,  -9,  -25,  -38
1919235, 1710335151, "2024/3/13 13:5:51",  8,  -58,  1004,  0,  0,  -1,  -9,  -27,  -39
1919435, 1710335151, "2024/3/13 13:5:51",  4,  -53,  1004,  0,  0,  0,  -9,  -27,  -36
1919635, 1710335151, "2024/3/13 13:5:51",  2,  -58,  1003,  0,  -1,  -1,  -9,  -26,  -37
1919835, 1710335152, "2024/3/13 13:5:52",  4,  -59,  1006,  0,  0,  -1,  -9,  -27,  -37
1920035, 1710335152, "2024/3/13 13:5:52",  4,  -60,  1002,  0,  0,  -1,  -10,  -27,  -37
1920235, 1710335152, "2024/3/13 13:5:52",  7,  -62,  1005,  0,  0,  -1,  -9,  -25,  -37
1920435, 1710335152, "2024/3/13 13:5:52",  6,  -57,  1004,  0,  0,  -1,  -9,  -26,  -37
1920635, 1710335152, "2024/3/13 13:5:52",  5,  -56,  1002,  0,  -1,  -1,  -9,  -27,  -37
1920835, 1710335153, "2024/3/13 13:5:53",  6,  -58,  1003,  0,  0,  -1,  -10,  -27,  -37
1921035, 1710335153, "2024/3/13 13:5:53",  6,  -57,  1002,  0,  -1,  0,  -11,  -25,  -38
1921235, 1710335153, "2024/3/13 13:5:53",  8,  -57,  1001,  0,  0,  0,  -9,  -27,  -38
1921435, 1710335153, "2024/3/13 13:5:53",  6,  -56,  1002,  0,  0,  -1,  -11,  -27,  -38
1921635, 1710335153, "2024/3/13 13:5:53",  7,  -53,  1004,  0,  0,  0,  -10,  -26,  -36
1921835, 1710335154, "2024/3/13 13:5:54",  5,  -57,  1006,  0,  -1,  0,  -10,  -25,  -38
1922035, 1710335154, "2024/3/13 13:5:54",  -1,  -58,  1006,  0,  0,  -1,  -10,  -26,  -38
1922235, 1710335154, "2024/3/13 13:5:54",  1,  -57,  1003,  0,  -1,  -1,  -11,  -25,  -38
1922435, 1710335154, "2024/3/13 13:5:54",  5,  -59,  1002,  0,  0,  0,  -9,  -25,  -37
1922635, 1710335154, "2024/3/13 13:5:54",  4,  -54,  1006,  0,  0,  -1,  -11,  -25,  -37
1922835, 1710335155, "2024/3/13 13:5:55",  3,  -54,  1003,  0,  0,  -1,  -9,  -26,  -37
1923035, 1710335155, "2024/3/13 13:5:55",  3,  -51,  1008,  0,  0,  -1,  -9,  -26,  -37
1923235, 1710335155, "2024/3/13 13:5:55",  5,  -59,  1004,  0,  0,  -1,  -11,  -27,  -37
1923435, 1710335155, "2024/3/13 13:5:55",  4,  -57,  1003,  0,  0,  0,  -9,  -25,  -37
1923635, 1710335155, "2024/3/13 13:5:55",  8,  -55,  1008,  0,  0,  0,  -10,  -26,  -39
1923835, 1710335156, "2024/3/13 13:5:56",  5,  -55,  1008,  0,  0,  -1,  -11,  -26,  -36
1924035, 1710335156, "2024/3/13 13:5:56",  3,  -49,  1003,  0,  0,  -1,  -9,  -26,  -39
1924235, 1710335156, "2024/3/13 13:5:56",  6,  -55,  1000,  0,  0,  -1,  -9,  -26,  -37
1924435, 1710335156, "2024/3/13 13:5:56",  8,  -60,  1004,  0,  0,  -1,  -10,  -27,  -38
1924635, 1710335156, "2024/3/13 13:5:56",  1,  -51,  1004,  0,  0,  -1,  -10,  -26,  -38
1924835, 1710335157, "2024/3/13 13:5:57",  1,  -55,  1004,  0,  0,  -1,  -9,  -26,  -37
1925035, 1710335157, "2024/3/13 13:5:57",  4,  -52,  1010,  0,  0,  -1,  -11,  -26,  -39
1925235, 1710335157, "2024/3/13 13:5:57",  4,  -58,  1007,  0,  0,  -1,  -10,  -25,  -38
1925435, 1710335157, "2024/3/13 13:5:57",  9,  -57,  1011,  0,  0,  -1,  -9,  -26,  -40
1925635, 1710335157, "2024/3/13 13:5:57",  5,  -59,  1004,  0,  0,  0,  -9,  -26,  -37
1925835, 1710335158, "2024/3/13 13:5:58",  9,  -60,  1001,  0,  0,  -1,  -9,  -27,  -39
1926035, 1710335158, "2024/3/13 13:5:58",  2,  -58,  1000,  0,  0,  0,  -9,  -25,  -37
1926235, 1710335158, "2024/3/13 13:5:58",  3,  -57,  1005,  0,  0,  -1,  -8,  -28,  -37
1926435, 1710335158, "2024/3/13 13:5:58",  3,  -65,  1005,  0,  -1,  -1,  -10,  -26,  -38
1926635, 1710335158, "2024/3/13 13:5:58",  3,  -57,  1003,  0,  0,  -1,  -9,  -25,  -36
1926835, 1710335159, "2024/3/13 13:5:59",  9,  -48,  1002,  0,  0,  0,  -9,  -26,  -37
1927035, 1710335159, "2024/3/13 13:5:59",  4,  -60,  1005,  0,  0,  -1,  -11,  -26,  -37
1927235, 1710335159, "2024/3/13 13:5:59",  7,  -56,  1005,  0,  0,  -1,  -8,  -25,  -39
1927435, 1710335159, "2024/3/13 13:5:59",  8,  -57,  1006,  0,  0,  0,  -9,  -26,  -39
1927635, 1710335159, "2024/3/13 13:5:59",  7,  -53,  1005,  0,  -1,  -1,  -9,  -27,  -38
1927835, 1710335160, "2024/3/13 13:6:0",  4,  -64,  1004,  0,  0,  -1,  -9,  -25,  -39
1928035, 1710335160, "2024/3/13 13:6:0",  9,  -63,  1002,  0,  0,  0,  -9,  -26,  -38
1928235, 1710335160, "2024/3/13 13:6:0",  6,  -58,  1002,  0,  0,  -1,  -11,  -27,  -38
1928435, 1710335160, "2024/3/13 13:6:0",  7,  -59,  1000,  0,  0,  -1,  -9,  -26,  -37
1928635, 1710335160, "2024/3/13 13:6:0",  2,  -59,  1005,  0,  0,  0,  -10,  -27,  -38
1928835, 1710335161, "2024/3/13 13:6:1",  1,  -57,  1000,  0,  0,  -1,  -10,  -27,  -37
1929035, 1710335161, "2024/3/13 13:6:1",  5,  -56,  1003,  0,  0,  0,  -11,  -25,  -37
1929235, 1710335161, "2024/3/13 13:6:1",  12,  -56,  1000,  0,  0,  0,  -9,  -25,  -37
1929435, 1710335161, "2024/3/13 13:6:1",  6,  -54,  1004,  0,  0,  -1,  -9,  -26,  -37
1929635, 1710335161, "2024/3/13 13:6:1",  3,  -56,  1002,  0,  0,  -1,  -9,  -27,  -38
1929835, 1710335162, "2024/3/13 13:6:2",  3,  -59,  1002,  0,  0,  -1,  -9,  -26,  -38
1930035, 1710335162, "2024/3/13 13:6:2",  8,  -57,  1004,  0,  -1,  0,  -10,  -27,  -39
1930235, 1710335162, "2024/3/13 13:6:2",  4,  -57,  1004,  0,  0,  -1,  -10,  -25,  -38
1930435, 1710335162, "2024/3/13 13:6:2",  9,  -57,  1003,  0,  0,  -1,  -9,  -26,  -37
1930635, 1710335162, "2024/3/13 13:6:2",  7,  -58,  1003,  0,  0,  -1,  -11,  -26,  -37
1930835, 1710335163, "2024/3/13 13:6:3",  8,  -57,  1002,  0,  0,  0,  -10,  -25,  -38
1931035, 1710335163, "2024/3/13 13:6:3",  5,  -56,  1000,  0,  0,  0,  -9,  -25,  -37
1931235, 1710335163, "2024/3/13 13:6:3",  4,  -58,  1000,  0,  0,  -1,  -9,  -25,  -38
1931435, 1710335163, "2024/3/13 13:6:3",  6,  -57,  1002,  0,  0,  0,  -10,  -27,  -37
1931635, 1710335163, "2024/3/13 13:6:3",  7,  -59,  1003,  0,  0,  0,  -9,  -24,  -39
1931835, 1710335164, "2024/3/13 13:6:4",  1,  -53,  1005,  0,  0,  -1,  -9,  -25,  -36
1932035, 1710335164, "2024/3/13 13:6:4",  7,  -60,  1001,  0,  0,  0,  -9,  -25,  -37
1932235, 1710335164, "2024/3/13 13:6:4",  1,  -55,  1004,  0,  0,  -1,  -8,  -25,  -37
1932435, 1710335164, "2024/3/13 13:6:4",  4,  -61,  1006,  0,  0,  -1,  -10,  -25,  -38
1932635, 1710335164, "2024/3/13 13:6:4",  3,  -53,  1001,  0,  0,  0,  -9,  -25,  -38
1932835, 1710335165, "2024/3/13 13:6:5",  5,  -54,  1007,  0,  -1,  -1,  -10,  -25,  -38
1933035, 1710335165, "2024/3/13 13:6:5",  3,  -62,  1007,  0,  0,  -1,  -10,  -26,  -39
1933235, 1710335165, "2024/3/13 13:6:5",  7,  -61,  1000,  0,  0,  0,  -11,  -26,  -38
1933435, 1710335165, "2024/3/13 13:6:5",  4,  -57,  1003,  0,  0,  0,  -9,  -27,  -37
1933635, 1710335165, "2024/3/13 13:6:5",  7,  -63,  1006,  0,  0,  0,  -9,  -26,  -39
1933835, 1710335166, "2024/3/13 13:6:6",  4,  -55,  1005,  0,  0,  0,  -10,  -26,  -38
1934035, 1710335166, "2024/3/13 13:6:6",  3,  -57,  1002,  0,  0,  0,  -9,  -25,  -38
1934235, 1710335166, "2024/3/13 13:6:6",  5,  -57,  1005,  0,  0,  -1,  -9,  -27,  -38
1934435, 1710335166, "2024/3/13 13:6:6",  3,  -60,  1002,  0,  0,  -1,  -10,  -26,  -37
1934635, 1710335166, "2024/3/13 13:6:6",  3,  -55,  1003,  0,  0,  -1,  -10,  -26,  -37
1934835, 1710335167, "2024/3/13 13:6:7",  3,  -56,  1005,  0,  0,  -1,  -10,  -27,  -37
1935035, 1710335167, "2024/3/13 13:6:7",  7,  -59,  1002,  0,  0,  0,  -11,  -26,  -37
1935235, 1710335167, "2024/3/13 13:6:7",  7,  -57,  1002,  0,  0,  0,  -9,  -26,  -37
1935435, 1710335167, "2024/3/13 13:6:7",  5,  -51,  1001,  0,  0,  -1,  -8,  -26,  -39
1935635, 1710335167, "2024/3/13 13:6:7",  1,  -57,  1000,  0,  0,  -1,  -10,  -26,  -38
1935835, 1710335168, "2024/3/13 13:6:8",  4,  -57,  1005,  0,  0,  -1,  -10,  -25,  -37
1936035, 1710335168, "2024/3/13 13:6:8",  10,  -55,  998,  0,  0,  -1,  -9,  -27,  -38
1936235, 1710335168, "2024/3/13 13:6:8",  8,  -59,  1004,  0,  0,  0,  -9,  -24,  -38
1936435, 1710335168, "2024/3/13 13:6:8",  -1,  -60,  1002,  0,  0,  0,  -9,  -24,  -38
1936635, 1710335168, "2024/3/13 13:6:8",  5,  -64,  1006,  0,  0,  -1,  -9,  -27,  -37
1936835, 1710335169, "2024/3/13 13:6:9",  8,  -55,  1006,  0,  -1,  -1,  -9,  -26,  -37
1937035, 1710335169, "2024/3/13 13:6:9",  1,  -57,  1003,  0,  0,  -1,  -9,  -25,  -37
1937235, 1710335169, "2024/3/13 13:6:9",  5,  -59,  1004,  0,  -1,  -1,  -10,  -24,  -36
1937435, 1710335169, "2024/3/13 13:6:9",  7,  -56,  1006,  0,  0,  -1,  -10,  -27,  -37
1937635, 1710335169, "2024/3/13 13:6:9",  2,  -52,  1002,  0,  -1,  0,  -9,  -25,  -38
1937835, 1710335170, "2024/3/13 13:6:10",  0,  -61,  1004,  0,  0,  -1,  -10,  -27,  -38
1938035, 1710335170, "2024/3/13 13:6:10",  5,  -59,  1003,  0,  0,  -1,  -8,  -25,  -38
1938235, 1710335170, "2024/3/13 13:6:10",  4,  -61,  1004,  0,  0,  0,  -9,  -26,  -37
1938435, 1710335170, "2024/3/13 13:6:10",  5,  -57,  1002,  0,  -1,  0,  -9,  -26,  -37
1938635, 1710335170, "2024/3/13 13:6:10",  1,  -59,  1002,  0,  -1,  -1,  -9,  -24,  -37
1938835, 1710335171, "2024/3/13 13:6:11",  0,  -58,  1004,  0,  0,  -1,  -9,  -24,  -38
1939035, 1710335171, "2024/3/13 13:6:11",  2,  -50,  1008,  0,  0,  0,  -10,  -24,  -38
1939235, 1710335171, "2024/3/13 13:6:11",  4,  -60,  1002,  0,  -1,  0,  -9,  -27,  -37
1939435, 1710335171, "2024/3/13 13:6:11",  4,  -53,  1005,  0,  0,  -1,  -9,  -26,  -38
1939635, 1710335171, "2024/3/13 13:6:11",  4,  -60,  1005,  0,  0,  -1,  -11,  -27,  -37
1939835, 1710335172, "2024/3/13 13:6:12",  4,  -50,  1004,  0,  -1,  -1,  -9,  -26,  -38
1940035, 1710335172, "2024/3/13 13:6:12",  2,  -54,  1004,  0,  0,  -1,  -10,  -25,  -37
1940235, 1710335172, "2024/3/13 13:6:12",  11,  -57,  1006,  0,  0,  0,  -10,  -26,  -37
1940435, 1710335172, "2024/3/13 13:6:12",  6,  -54,  1004,  0,  0,  -1,  -9,  -26,  -38
1940635, 1710335172, "2024/3/13 13:6:12",  0,  -57,  1005,  0,  0,  0,  -8,  -26,  -37
1940835, 1710335173, "2024/3/13 13:6:13",  2,  -56,  1002,  0,  0,  -1,  -9,  -26,  -37
1941035, 1710335173, "2024/3/13 13:6:13",  2,  -54,  1002,  0,  0,  -1,  -9,  -26,  -38
1941235, 1710335173, "2024/3/13 13:6:13",  8,  -58,  1007,  0,  0,  -1,  -10,  -26,  -38
1941435, 1710335173, "2024/3/13 13:6:13",  3,  -52,  1002,  0,  0,  0,  -9,  -26,  -39
1941635, 1710335173, "2024/3/13 13:6:13",  6,  -59,  1005,  0,  -1,  -1,  -11,  -25,  -38
1941835, 1710335174, "2024/3/13 13:6:14",  6,  -57,  1002,  0,  -1,  0,  -10,  -25,  -39
1942035, 1710335174, "2024/3/13 13:6:14",  5,  -55,  1001,  0,  0,  0,  -10,  -26,  -38
1942235, 1710335174, "2024/3/13 13:6:14",  6,  -57,  1005,  0,  0,  0,  -10,  -26,  -37
1942435, 1710335174, "2024/3/13 13:6:14",  1,  -57,  1002,  0,  0,  -1,  -11,  -26,  -38
1942635, 1710335174, "2024/3/13 13:6:14",  1,  -58,  1003,  0,  0,  -1,  -11,  -26,  -37
1942835, 1710335175, "2024/3/13 13:6:15",  0,  -52,  995,  0,  0,  0,  -10,  -25,  -37
1943035, 1710335175, "2024/3/13 13:6:15",  8,  -61,  1003,  0,  0,  0,  -9,  -25,  -38
1943235, 1710335175, "2024/3/13 13:6:15",  2,  -62,  1001,  0,  0,  -1,  -10,  -26,  -37
1943435, 1710335175, "2024/3/13 13:6:15",  3,  -58,  1001,  0,  -1,  -1,  -10,  -25,  -35
1943635, 1710335175, "2024/3/13 13:6:15",  6,  -51,  1009,  0,  0,  -1,  -9,  -25,  -38
1943835, 1710335176, "2024/3/13 13:6:16",  8,  -56,  1002,  0,  0,  -1,  -9,  -26,  -39
1944035, 1710335176, "2024/3/13 13:6:16",  7,  -56,  999,  0,  0,  -1,  -10,  -25,  -38
1944235, 1710335176, "2024/3/13 13:6:16",  8,  -60,  1004,  0,  0,  -1,  -10,  -26,  -39
1944435, 1710335176, "2024/3/13 13:6:16",  2,  -59,  1003,  0,  0,  -1,  -10,  -25,  -39
1944635, 1710335176, "2024/3/13 13:6:16",  8,  -53,  1005,  0,  0,  -1,  -9,  -27,  -36
1944835, 1710335177, "2024/3/13 13:6:17",  -1,  -69,  987,  0,  -1,  0,  -8,  -25,  -36
1945035, 1710335177, "2024/3/13 13:6:17",  5,  -56,  1004,  0,  0,  -1,  -9,  -26,  -37
1945235, 1710335177, "2024/3/13 13:6:17",  4,  -51,  1000,  0,  0,  -1,  -9,  -24,  -37
1945435, 1710335177, "2024/3/13 13:6:17",  4,  -60,  1003,  0,  0,  -1,  -9,  -25,  -38
1945635, 1710335177, "2024/3/13 13:6:17",  6,  -56,  1000,  0,  0,  -1,  -10,  -26,  -37
1945835, 1710335178, "2024/3/13 13:6:18",  1,  -59,  1001,  0,  0,  -1,  -9,  -26,  -38
1946035, 1710335178, "2024/3/13 13:6:18",  6,  -60,  1005,  0,  -1,  0,  -10,  -26,  -38
1946235, 1710335178, "2024/3/13 13:6:18",  3,  -57,  1001,  0,  0,  -1,  -8,  -27,  -38
1946435, 1710335178, "2024/3/13 13:6:18",  0,  -60,  1001,  0,  0,  -1,  -8,  -27,  -36
1946635, 1710335178, "2024/3/13 13:6:18",  3,  -54,  1006,  0,  0,  -1,  -10,  -26,  -38
1946835, 1710335179, "2024/3/13 13:6:19",  6,  -60,  1004,  0,  0,  0,  -10,  -26,  -38
1947035, 1710335179, "2024/3/13 13:6:19",  4,  -57,  1003,  0,  0,  -1,  -9,  -25,  -38
1947235, 1710335179, "2024/3/13 13:6:19",  4,  -53,  1001,  0,  0,  0,  -11,  -25,  -38
1947435, 1710335179, "2024/3/13 13:6:19",  2,  -59,  1001,  0,  0,  -1,  -9,  -27,  -37
1947635, 1710335179, "2024/3/13 13:6:19",  1,  -58,  1002,  0,  -1,  0,  -9,  -26,  -38
1947835, 1710335180, "2024/3/13 13:6:20",  1,  -61,  1001,  0,  0,  -1,  -10,  -26,  -37
1948035, 1710335180, "2024/3/13 13:6:20",  0,  -51,  1006,  0,  -1,  -1,  -11,  -26,  -38
1948235, 1710335180, "2024/3/13 13:6:20",  8,  -56,  1005,  0,  0,  -1,  -9,  -24,  -38
1948435, 1710335180, "2024/3/13 13:6:20",  8,  -57,  1004,  0,  0,  -1,  -9,  -27,  -38
1948635, 1710335180, "2024/3/13 13:6:20",  -1,  -51,  1001,  0,  0,  0,  -9,  -26,  -38
1948835, 1710335181, "2024/3/13 13:6:21",  5,  -56,  1002,  0,  0,  -1,  -9,  -27,  -39
1949035, 1710335181, "2024/3/13 13:6:21",  9,  -58,  1002,  0,  0,  -1,  -9,  -26,  -37
1949235, 1710335181, "2024/3/13 13:6:21",  7,  -59,  1004,  0,  -1,  -1,  -9,  -26,  -38
1949435, 1710335181, "2024/3/13 13:6:21",  6,  -54,  1003,  0,  0,  0,  -9,  -27,  -37
1949635, 1710335181, "2024/3/13 13:6:21",  7,  -57,  1000,  0,  0,  -1,  -10,  -26,  -38
1949835, 1710335182, "2024/3/13 13:6:22",  0,  -49,  1005,  0,  0,  -1,  -10,  -26,  -39
1950035, 1710335182, "2024/3/13 13:6:22",  6,  -57,  1001,  0,  0,  0,  -8,  -26,  -37
1950235, 1710335182, "2024/3/13 13:6:22",  1,  -61,  1006,  0,  0,  -1,  -9,  -26,  -39
1950435, 1710335182, "2024/3/13 13:6:22",  5,  -63,  1004,  0,  0,  -1,  -9,  -24,  -37
1950635, 1710335182, "2024/3/13 13:6:22",  5,  -57,  1004,  0,  0,  -1,  -9,  -27,  -39
1950835, 1710335183, "2024/3/13 13:6:23",  4,  -57,  1004,  0,  -1,  -1,  -9,  -27,  -36
1951035, 1710335183, "2024/3/13 13:6:23",  0,  -61,  1000,  0,  0,  0,  -9,  -26,  -37
1951235, 1710335183, "2024/3/13 13:6:23",  4,  -59,  1002,  0,  -1,  -1,  -8,  -25,  -38
1951435, 1710335183, "2024/3/13 13:6:23",  8,  -55,  1003,  0,  0,  -1,  -8,  -25,  -39
1951635, 1710335183, "2024/3/13 13:6:23",  7,  -63,  1004,  0,  0,  0,  -8,  -25,  -39
1951835, 1710335184, "2024/3/13 13:6:24",  2,  -62,  1002,  0,  0,  -1,  -9,  -26,  -39
1952035, 1710335184, "2024/3/13 13:6:24",  4,  -55,  1005,  0,  0,  -1,  -10,  -26,  -37
1952235, 1710335184, "2024/3/13 13:6:24",  7,  -62,  1002,  0,  0,  -1,  -9,  -26,  -37
1952435, 1710335184, "2024/3/13 13:6:24",  6,  -55,  1004,  0,  0,  -1,  -9,  -26,  -38
1952635, 1710335184, "2024/3/13 13:6:24",  2,  -58,  1002,  0,  0,  0,  -8,  -25,  -37
1952835, 1710335185, "2024/3/13 13:6:25",  1,  -58,  1001,  0,  0,  -1,  -8,  -25,  -39
1953035, 1710335185, "2024/3/13 13:6:25",  -4,  -57,  1003,  0,  -1,  -1,  -9,  -25,  -38
1953235, 1710335185, "2024/3/13 13:6:25",  3,  -61,  1004,  0,  -1,  -1,  -10,  -26,  -37
1953435, 1710335185, "2024/3/13 13:6:25",  6,  -57,  1004,  0,  0,  -1,  -9,  -25,  -37
1953635, 1710335185, "2024/3/13 13:6:25",  3,  -55,  1003,  0,  0,  -1,  -10,  -27,  -37
1953835, 1710335186, "2024/3/13 13:6:26",  3,  -60,  1003,  0,  0,  0,  -10,  -26,  -39
1954035, 1710335186, "2024/3/13 13:6:26",  3,  -56,  1000,  0,  0,  -1,  -9,  -24,  -38
1954235, 1710335186, "2024/3/13 13:6:26",  2,  -59,  1003,  0,  0,  0,  -9,  -26,  -36
1954435, 1710335186, "2024/3/13 13:6:26",  1,  -59,  1005,  0,  0,  -1,  -9,  -26,  -38
1954635, 1710335186, "2024/3/13 13:6:26",  4,  -56,  1005,  0,  0,  0,  -10,  -26,  -38
1954835, 1710335187, "2024/3/13 13:6:27",  0,  -59,  1005,  0,  0,  0,  -9,  -27,  -37
1955035, 1710335187, "2024/3/13 13:6:27",  4,  -55,  1001,  0,  0,  -1,  -11,  -26,  -38
1955235, 1710335187, "2024/3/13 13:6:27",  1,  -55,  1000,  0,  -1,  -1,  -9,  -26,  -36
1955435, 1710335187, "2024/3/13 13:6:27",  4,  -57,  1005,  0,  0,  -1,  -9,  -25,  -39
1955635, 1710335187, "2024/3/13 13:6:27",  1,  -55,  1006,  0,  -1,  0,  -10,  -27,  -39
1955835, 1710335188, "2024/3/13 13:6:28",  3,  -59,  1002,  0,  0,  -1,  -9,  -26,  -38
1956035, 1710335188, "2024/3/13 13:6:28",  4,  -58,  1005,  0,  -1,  -1,  -8,  -26,  -37
1956235, 1710335188, "2024/3/13 13:6:28",  10,  -61,  1001,  0,  0,  0,  -9,  -26,  -37
1956435, 1710335188, "2024/3/13 13:6:28",  10,  -63,  1003,  0,  0,  0,  -10,  -26,  -37
1956635, 1710335188, "2024/3/13 13:6:28",  7,  -60,  1004,  0,  0,  0,  -8,  -26,  -39
1956835, 1710335189, "2024/3/13 13:6:29",  4,  -56,  1003,  0,  -1,  -1,  -9,  -25,  -39
1957035, 1710335189, "2024/3/13 13:6:29",  2,  -55,  1000,  0,  0,  -1,  -10,  -25,  -39
1957235, 1710335189, "2024/3/13 13:6:29",  2,  -56,  1000,  0,  0,  -1,  -9,  -25,  -38
1957435, 1710335189, "2024/3/13 13:6:29",  7,  -61,  1004,  0,  0,  -1,  -10,  -25,  -37
1957635, 1710335189, "2024/3/13 13:6:29",  2,  -57,  1000,  0,  0,  -1,  -10,  -25,  -38
1957835, 1710335190, "2024/3/13 13:6:30",  5,  -55,  1003,  0,  0,  -1,  -10,  -25,  -37
1958035, 1710335190, "2024/3/13 13:6:30",  6,  -58,  1004,  0,  0,  0,  -9,  -25,  -38
1958235, 1710335190, "2024/3/13 13:6:30",  6,  -53,  1005,  0,  -1,  -1,  -10,  -25,  -37
1958435, 1710335190, "2024/3/13 13:6:30",  6,  -60,  1002,  0,  0,  -1,  -8,  -24,  -36
1958635, 1710335190, "2024/3/13 13:6:30",  5,  -58,  1002,  0,  0,  0,  -9,  -25,  -39
1958835, 1710335191, "2024/3/13 13:6:31",  6,  -51,  1005,  0,  0,  0,  -9,  -26,  -38
1959035, 1710335191, "2024/3/13 13:6:31",  3,  -59,  1004,  0,  0,  0,  -8,  -26,  -38
1959235, 1710335191, "2024/3/13 13:6:31",  4,  -61,  1002,  0,  0,  0,  -9,  -26,  -37
1959435, 1710335191, "2024/3/13 13:6:31",  3,  -60,  1004,  0,  0,  -1,  -8,  -25,  -37
1959635, 1710335191, "2024/3/13 13:6:31",  3,  -56,  1004,  0,  0,  -1,  -9,  -25,  -38
1959835, 1710335192, "2024/3/13 13:6:32",  9,  -59,  1004,  0,  -1,  -1,  -9,  -25,  -38
1960035, 1710335192, "2024/3/13 13:6:32",  4,  -50,  1001,  0,  0,  -1,  -9,  -26,  -37
1960235, 1710335192, "2024/3/13 13:6:32",  9,  -54,  1003,  0,  0,  0,  -10,  -26,  -36
1960435, 1710335192, "2024/3/13 13:6:32",  7,  -53,  1003,  0,  0,  -1,  -9,  -26,  -36
1960635, 1710335192, "2024/3/13 13:6:32",  10,  -49,  1000,  0,  0,  -1,  -9,  -26,  -38
1960835, 1710335193, "2024/3/13 13:6:33",  6,  -52,  1006,  0,  -1,  -1,  -9,  -26,  -39
1961035, 1710335193, "2024/3/13 13:6:33",  6,  -60,  1003,  0,  0,  -1,  -9,  -25,  -38
1961235, 1710335193, "2024/3/13 13:6:33",  -1,  -64,  1006,  0,  0,  -1,  -9,  -25,  -37
1961435, 1710335193, "2024/3/13 13:6:33",  -1,  -55,  1004,  0,  0,  -1,  -10,  -25,  -38
1961635, 1710335193, "2024/3/13 13:6:33",  -3,  -57,  1002,  0,  0,  -1,  -10,  -25,  -37
1961835, 1710335194, "2024/3/13 13:6:34",  1,  -53,  1000,  0,  -1,  -1,  -9,  -25,  -39
1962035, 1710335194, "2024/3/13 13:6:34",  3,  -54,  1003,  0,  0,  0,  -10,  -27,  -38
1962235, 1710335194, "2024/3/13 13:6:34",  11,  -59,  1005,  0,  0,  -1,  -9,  -25,  -38
1962435, 1710335194, "2024/3/13 13:6:34",  14,  -56,  1006,  0,  0,  -1,  -8,  -25,  -39
1962635, 1710335194, "2024/3/13 13:6:34",  8,  -52,  1003,  0,  0,  -1,  -10,  -25,  -38
1962835, 1710335195, "2024/3/13 13:6:35",  5,  -60,  1004,  0,  0,  0,  -9,  -27,  -37
1963035, 1710335195, "2024/3/13 13:6:35",  1,  -59,  1007,  0,  0,  0,  -9,  -25,  -36
1963235, 1710335195, "2024/3/13 13:6:35",  1,  -60,  1005,  0,  -1,  0,  -9,  -26,  -38
1963435, 1710335195, "2024/3/13 13:6:35",  -2,  -61,  1002,  0,  0,  0,  -11,  -25,  -37
1963635, 1710335195, "2024/3/13 13:6:35",  0,  -54,  1002,  0,  0,  -1,  -9,  -26,  -37
1963835, 1710335196, "2024/3/13 13:6:36",  -1,  -55,  1004,  0,  0,  0,  -10,  -25,  -37
1964035, 1710335196, "2024/3/13 13:6:36",  2,  -53,  1002,  0,  0,  0,  -8,  -27,  -37
1964235, 1710335196, "2024/3/13 13:6:36",  5,  -59,  1002,  0,  0,  0,  -10,  -26,  -37
1964435, 1710335196, "2024/3/13 13:6:36",  4,  -62,  1000,  0,  0,  -1,  -9,  -25,  -39
1964635, 1710335196, "2024/3/13 13:6:36",  5,  -61,  1001,  0,  0,  -1,  -10,  -26,  -37
1964835, 1710335197, "2024/3/13 13:6:37",  10,  -60,  1002,  0,  0,  -1,  -10,  -24,  -39
1965035, 1710335197, "2024/3/13 13:6:37",  12,  -58,  1005,  0,  0,  0,  -9,  -25,  -39
1965235, 1710335197, "2024/3/13 13:6:37",  14,  -57,  1002,  0,  0,  -1,  -9,  -25,  -39
1965435, 1710335197, "2024/3/13 13:6:37",  13,  -56,  1000,  0,  0,  -1,  -10,  -27,  -39
1965635, 1710335197, "2024/3/13 13:6:37",  14,  -54,  1006,  0,  0,  -1,  -10,  -26,  -36
1965835, 1710335198, "2024/3/13 13:6:38",  12,  -63,  1003,  0,  0,  0,  -8,  -26,  -37
1966035, 1710335198, "2024/3/13 13:6:38",  6,  -63,  1005,  0,  0,  0,  -8,  -26,  -37
1966235, 1710335198, "2024/3/13 13:6:38",  10,  -52,  1004,  0,  -1,  -1,  -9,  -26,  -37
1966435, 1710335198, "2024/3/13 13:6:38",  2,  -55,  1002,  0,  0,  -1,  -9,  -25,  -37
1966635, 1710335198, "2024/3/13 13:6:38",  7,  -58,  1008,  0,  0,  -1,  -10,  -26,  -37
1966835, 1710335199, "2024/3/13 13:6:39",  3,  -64,  1004,  0,  0,  -1,  -8,  -25,  -38
1967035, 1710335199, "2024/3/13 13:6:39",  3,  -60,  1003,  0,  0,  0,  -11,  -27,  -37
1967235, 1710335199, "2024/3/13 13:6:39",  1,  -54,  1004,  0,  0,  0,  -10,  -24,  -39
1967435, 1710335199, "2024/3/13 13:6:39",  -1,  -54,  1003,  0,  0,  0,  -10,  -25,  -37
1967635, 1710335199, "2024/3/13 13:6:39",  0,  -58,  1000,  0,  0,  -1,  -9,  -27,  -37
1967835, 1710335200, "2024/3/13 13:6:40",  -1,  -59,  1001,  0,  0,  -1,  -9,  -26,  -39
1968035, 1710335200, "2024/3/13 13:6:40",  1,  -54,  1000,  0,  0,  0,  -10,  -26,  -36
1968235, 1710335200, "2024/3/13 13:6:40",  0,  -60,  1003,  0,  0,  -1,  -9,  -24,  -38
1968435, 1710335200, "2024/3/13 13:6:40",  7,  -64,  1002,  0,  0,  -1,  -8,  -25,  -38
1968635, 1710335200, "2024/3/13 13:6:40",  4,  -54,  1003,  0,  0,  0,  -11,  -26,  -39
1968835, 1710335201, "2024/3/13 13:6:41",  12,  -57,  1003,  0,  0,  -1,  -10,  -25,  -39
1969035, 1710335201, "2024/3/13 13:6:41",  10,  -56,  1010,  0,  0,  -1,  -8,  -26,  -37
1969235, 1710335201, "2024/3/13 13:6:41",  8,  -56,  1002,  0,  0,  -1,  -8,  -25,  -37
1969435, 1710335201, "2024/3/13 13:6:41",  8,  -54,  1006,  0,  0,  -1,  -8,  -25,  -36
1969635, 1710335201, "2024/3/13 13:6:41",  10,  -57,  1005,  0,  0,  0,  -9,  -26,  -38
1969835, 1710335202, "2024/3/13 13:6:42",  6,  -60,  1007,  0,  0,  -1,  -9,  -25,  -36
1970035, 1710335202, "2024/3/13 13:6:42",  1,  -62,  1003,  0,  -1,  -1,  -10,  -26,  -37
1970235, 1710335202, "2024/3/13 13:6:42",  -4,  -62,  1006,  0,  0,  0,  -9,  -26,  -38
1970435, 1710335202, "2024/3/13 13:6:42",  2,  -61,  1003,  0,  -1,  -1,  -11,  -25,  -37
1970635, 1710335202, "2024/3/13 13:6:42",  -4,  -62,  1002,  0,  -1,  -1,  -9,  -25,  -37
1970835, 1710335203, "2024/3/13 13:6:43",  -3,  -59,  1001,  0,  0,  0,  -8,  -27,  -40
1971035, 1710335203, "2024/3/13 13:6:43",  0,  -57,  1002,  0,  0,  0,  -10,  -27,  -37
1971235, 1710335203, "2024/3/13 13:6:43",  -2,  -56,  1002,  0,  0,  -1,  -9,  -25,  -37
1971435, 1710335203, "2024/3/13 13:6:43",  4,  -59,  1000,  0,  0,  0,  -9,  -26,  -37
1971635, 1710335203, "2024/3/13 13:6:43",  3,  -52,  1004,  0,  0,  0,  -9,  -25,  -37
1971835, 1710335204, "2024/3/13 13:6:44",  0,  -48,  1002,  0,  0,  0,  -9,  -26,  -38
1972035, 1710335204, "2024/3/13 13:6:44",  8,  -57,  1001,  0,  -1,  0,  -10,  -26,  -36
1972235, 1710335204, "2024/3/13 13:6:44",  7,  -54,  1005,  0,  0,  0,  -10,  -25,  -39
1972435, 1710335204, "2024/3/13 13:6:44",  6,  -56,  1005,  0,  0,  -1,  -11,  -25,  -38
1972635, 1710335204, "2024/3/13 13:6:44",  10,  -56,  1002,  0,  0,  -1,  -11,  -26,  -38
1972835, 1710335205, "2024/3/13 13:6:45",  16,  -57,  1008,  0,  0,  -1,  -9,  -26,  -38
1973035, 1710335205, "2024/3/13 13:6:45",  14,  -55,  1006,  0,  0,  -1,  -10,  -27,  -37
1973235, 1710335205, "2024/3/13 13:6:45",  4,  -60,  1005,  0,  0,  -1,  -9,  -25,  -36
1973435, 1710335205, "2024/3/13 13:6:45",  5,  -60,  1004,  0,  0,  -1,  -9,  -26,  -38
1973635, 1710335205, "2024/3/13 13:6:45",  3,  -56,  1002,  0,  0,  0,  -10,  -26,  -38
1973835, 1710335206, "2024/3/13 13:6:46",  -3,  -54,  1008,  0,  0,  -1,  -9,  -26,  -38
1974035, 1710335206, "2024/3/13 13:6:46",  -5,  -57,  1005,  0,  0,  -1,  -9,  -25,  -37
1974235, 1710335206, "2024/3/13 13:6:46",  -1,  -60,  1002,  0,  0,  0,  -8,  -24,  -38
1974435, 1710335206, "2024/3/13 13:6:46",  4,  -56,  1000,  0,  0,  -1,  -10,  -25,  -38
1974635, 1710335206, "2024/3/13 13:6:46",  8,  -55,  1000,  0,  0,  -1,  -11,  -25,  -38
1974835, 1710335207, "2024/3/13 13:6:47",  4,  -59,  1001,  0,  0,  -1,  -9,  -25,  -38
1975035, 1710335207, "2024/3/13 13:6:47",  11,  -63,  1004,  0,  0,  -1,  -8,  -26,  -39
1975235, 1710335207, "2024/3/13 13:6:47",  11,  -61,  1001,  0,  0,  0,  -11,  -26,  -39
1975435, 1710335207, "2024/3/13 13:6:47",  6,  -67,  1009,  0,  0,  0,  -8,  -25,  -38
1975635, 1710335207, "2024/3/13 13:6:47",  1,  -64,  1006,  0,  0,  -1,  -9,  -26,  -37
1975835, 1710335208, "2024/3/13 13:6:48",  -1,  -59,  998,  0,  0,  0,  -9,  -26,  -37
1976035, 1710335208, "2024/3/13 13:6:48",  0,  -57,  1002,  0,  0,  -1,  -8,  -25,  -39
1976235, 1710335208, "2024/3/13 13:6:48",  -1,  -59,  1001,  0,  0,  0,  -9,  -26,  -38
1976435, 1710335208, "2024/3/13 13:6:48",  1,  -61,  1003,  0,  0,  0,  -9,  -25,  -36
1976635, 1710335208, "2024/3/13 13:6:48",  2,  -59,  1003,  0,  0,  -1,  -10,  -26,  -38
1976835, 1710335209, "2024/3/13 13:6:49",  6,  -60,  1001,  0,  0,  -1,  -10,  -27,  -37
1977035, 1710335209, "2024/3/13 13:6:49",  8,  -55,  1003,  0,  0,  0,  -10,  -24,  -38
1977235, 1710335209, "2024/3/13 13:6:49",  10,  -57,  1007,  0,  -1,  -1,  -11,  -25,  -38
1977435, 1710335209, "2024/3/13 13:6:49",  11,  -54,  1001,  0,  0,  -1,  -9,  -25,  -37
1977635, 1710335209, "2024/3/13 13:6:49",  9,  -59,  997,  0,  0,  -1,  -10,  -25,  -39
1977835, 1710335210, "2024/3/13 13:6:50",  8,  -64,  1006,  0,  0,  0,  -10,  -26,  -37
1978035, 1710335210, "2024/3/13 13:6:50",  12,  -60,  1005,  0,  0,  -1,  -9,  -25,  -37
1978235, 1710335210, "2024/3/13 13:6:50",  11,  -57,  1005,  0,  0,  -1,  -8,  -25,  -38
1978435, 1710335210, "2024/3/13 13:6:50",  10,  -57,  1003,  0,  0,  -1,  -8,  -25,  -37
1978635, 1710335210, "2024/3/13 13:6:50",  0,  -57,  1004,  0,  0,  -1,  -8,  -25,  -39
1978835, 1710335211, "2024/3/13 13:6:51",  2,  -60,  1005,  0,  0,  -1,  -11,  -26,  -38
1979035, 1710335211, "2024/3/13 13:6:51",  -1,  -63,  1004,  0,  0,  -1,  -10,  -27,  -37
1979235, 1710335211, "2024/3/13 13:6:51",  0,  -61,  1004,  0,  0,  0,  -9,  -27,  -37
1979435, 1710335211, "2024/3/13 13:6:51",  -2,  -58,  1004,  0,  0,  -1,  -10,  -25,  -37
1979635, 1710335211, "2024/3/13 13:6:51",  3,  -61,  1002,  0,  0,  -1,  -9,  -25,  -37
1979835, 1710335212, "2024/3/13 13:6:52",  1,  -57,  1001,  0,  -1,  -1,  -9,  -26,  -36
1980035, 1710335212, "2024/3/13 13:6:52",  6,  -55,  999,  0,  -1,  -1,  -10,  -25,  -38
1980235, 1710335212, "2024/3/13 13:6:52",  2,  -51,  1004,  0,  0,  -1,  -9,  -25,  -37
1980435, 1710335212, "2024/3/13 13:6:52",  8,  -54,  1005,  0,  0,  0,  -10,  -26,  -40
1980635, 1710335212, "2024/3/13 13:6:52",  7,  -61,  1004,  0,  -1,  -1,  -11,  -25,  -39
1980835, 1710335213, "2024/3/13 13:6:53",  7,  -58,  1006,  0,  0,  -1,  -10,  -26,  -38
1981035, 1710335213, "2024/3/13 13:6:53",  9,  -57,  1002,  0,  0,  -1,  -8,  -26,  -39
1981235, 1710335213, "2024/3/13 13:6:53",  13,  -57,  1005,  0,  0,  -1,  -9,  -24,  -38
1981435, 1710335213, "2024/3/13 13:6:53",  6,  -64,  1005,  0,  0,  -1,  -8,  -27,  -37
1981635, 1710335213, "2024/3/13 13:6:53",  3,  -64,  1002,  0,  0,  -1,  -9,  -25,  -36
1981835, 1710335214, "2024/3/13 13:6:54",  4,  -50,  1003,  0,  -1,  -1,  -11,  -25,  -38
1982035, 1710335214, "2024/3/13 13:6:54",  6,  -53,  1001,  0,  0,  -1,  -10,  -27,  -37
1982235, 1710335214, "2024/3/13 13:6:54",  8,  -47,  1006,  0,  0,  0,  -9,  -25,  -39
1982435, 1710335214, "2024/3/13 13:6:54",  13,  -59,  1002,  0,  0,  -1,  -7,  -27,  -38
1982635, 1710335214, "2024/3/13 13:6:54",  11,  -60,  1005,  0,  0,  -1,  -9,  -27,  -37
1982835, 1710335215, "2024/3/13 13:6:55",  10,  -57,  1004,  0,  0,  0,  -10,  -25,  -37
1983035, 1710335215, "2024/3/13 13:6:55",  7,  -54,  1006,  0,  0,  -1,  -8,  -25,  -37
1983235, 1710335215, "2024/3/13 13:6:55",  8,  -62,  1006,  0,  0,  -1,  -9,  -26,  -39
1983435, 1710335215, "2024/3/13 13:6:55",  -3,  -58,  996,  0,  0,  -1,  -10,  -26,  -38
1983635, 1710335215, "2024/3/13 13:6:55",  1,  -59,  1002,  0,  0,  -1,  -9,  -27,  -39
1983835, 1710335216, "2024/3/13 13:6:56",  2,  -51,  1001,  0,  0,  -1,  -8,  -26,  -38
1984035, 1710335216, "2024/3/13 13:6:56",  5,  -50,  1003,  0,  -1,  -1,  -9,  -27,  -36
1984235, 1710335216, "2024/3/13 13:6:56",  3,  -58,  1006,  0,  0,  -1,  -8,  -26,  -37
1984435, 1710335216, "2024/3/13 13:6:56",  3,  -59,  1006,  0,  0,  -1,  -9,  -28,  -37
1984635, 1710335216, "2024/3/13 13:6:56",  9,  -55,  1003,  0,  -1,  0,  -11,  -24,  -37
1984835, 1710335217, "2024/3/13 13:6:57",  12,  -52,  1006,  0,  0,  0,  -9,  -25,  -39
1985035, 1710335217, "2024/3/13 13:6:57",  9,  -54,  1004,  0,  0,  0,  -8,  -24,  -36
1985235, 1710335217, "2024/3/13 13:6:57",  6,  -61,  1005,  0,  0,  -1,  -9,  -25,  -37
1985435, 1710335217, "2024/3/13 13:6:57",  10,  -57,  1002,  0,  0,  -1,  -10,  -26,  -38
1985635, 1710335217, "2024/3/13 13:6:57",  5,  -56,  1006,  0,  0,  -1,  -9,  -26,  -39
1985835, 1710335218, "2024/3/13 13:6:58",  3,  -63,  1004,  0,  0,  0,  -8,  -28,  -38
1986035, 1710335218, "2024/3/13 13:6:58",  1,  -62,  1003,  0,  0,  0,  -8,  -25,  -37
1986235, 1710335218, "2024/3/13 13:6:58",  0,  -55,  1007,  0,  0,  -1,  -9,  -27,  -39
1986435, 1710335218, "2024/3/13 13:6:58",  2,  -51,  1004,  0,  0,  -1,  -8,  -24,  -38
1986635, 1710335218, "2024/3/13 13:6:58",  6,  -59,  1006,  0,  0,  -1,  -11,  -25,  -37
1986835, 1710335219, "2024/3/13 13:6:59",  9,  -63,  1004,  0,  0,  -1,  -9,  -24,  -38
1987035, 1710335219, "2024/3/13 13:6:59",  7,  -58,  1004,  0,  0,  0,  -8,  -24,  -39
1987235, 1710335219, "2024/3/13 13:6:59",  5,  -62,  1002,  0,  0,  0,  -9,  -25,  -36
1987435, 1710335219, "2024/3/13 13:6:59",  10,  -53,  1008,  0,  0,  -1,  -8,  -27,  -37
1987635, 1710335219, "2024/3/13 13:6:59",  8,  -58,  1000,  0,  0,  -1,  -9,  -26,  -37
1987835, 1710335220, "2024/3/13 13:7:0",  4,  -60,  1007,  0,  0,  -1,  -9,  -26,  -37
1988035, 1710335220, "2024/3/13 13:7:0",  3,  -59,  1003,  0,  0,  -1,  -11,  -26,  -37
1988235, 1710335220, "2024/3/13 13:7:0",  4,  -59,  1003,  0,  0,  0,  -8,  -26,  -36
1988435, 1710335220, "2024/3/13 13:7:0",  -4,  -62,  1008,  0,  0,  0,  -8,  -26,  -38
1988635, 1710335220, "2024/3/13 13:7:0",  -4,  -56,  1004,  0,  -1,  -1,  -7,  -25,  -36
1988835, 1710335221, "2024/3/13 13:7:1",  -2,  -54,  1000,  0,  0,  0,  -9,  -24,  -38
1989035, 1710335221, "2024/3/13 13:7:1",  -1,  -56,  1002,  0,  -1,  -1,  -8,  -25,  -37
1989235, 1710335221, "2024/3/13 13:7:1",  0,  -57,  1004,  0,  0,  0,  -10,  -25,  -36
1989435, 1710335221, "2024/3/13 13:7:1",  2,  -56,  1000,  0,  0,  -1,  -9,  -27,  -38
1989635, 1710335221, "2024/3/13 13:7:1",  6,  -47,  1003,  0,  0,  -1,  -10,  -24,  -36
1989835, 1710335222, "2024/3/13 13:7:2",  10,  -55,  1003,  0,  0,  0,  -9,  -26,  -40
1990035, 1710335222, "2024/3/13 13:7:2",  9,  -61,  1007,  0,  -1,  -1,  -11,  -26,  -37
1990235, 1710335222, "2024/3/13 13:7:2",  10,  -56,  1001,  0,  -1,  0,  -10,  -25,  -39
1990435, 1710335222, "2024/3/13 13:7:2",  14,  -58,  1002,  0,  0,  0,  -11,  -25,  -38
1990635, 1710335222, "2024/3/13 13:7:2",  5,  -58,  1004,  0,  0,  -1,  -10,  -26,  -37
1990835, 1710335223, "2024/3/13 13:7:3",  5,  -51,  1004,  0,  0,  0,  -9,  -25,  -37
1991035, 1710335223, "2024/3/13 13:7:3",  11,  -56,  1000,  0,  0,  0,  -10,  -27,  -39
1991235, 1710335223, "2024/3/13 13:7:3",  3,  -65,  1001,  0,  0,  0,  -9,  -26,  -40
1991435, 1710335223, "2024/3/13 13:7:3",  3,  -61,  1006,  0,  0,  0,  -10,  -26,  -37
1991635, 1710335223, "2024/3/13 13:7:3",  3,  -57,  1002,  0,  0,  -1,  -11,  -28,  -37
1991835, 1710335224, "2024/3/13 13:7:4",  6,  -59,  1003,  0,  0,  0,  -9,  -26,  -38
1992035, 1710335224, "2024/3/13 13:7:4",  9,  -59,  1004,  0,  0,  -1,  -10,  -27,  -37
1992235, 1710335224, "2024/3/13 13:7:4",  10,  -50,  1003,  0,  0,  0,  -9,  -25,  -39
1992435, 1710335224, "2024/3/13 13:7:4",  5,  -53,  1004,  0,  0,  -1,  -8,  -26,  -37
1992635, 1710335224, "2024/3/13 13:7:4",  8,  -54,  1007,  0,  0,  -1,  -8,  -27,  -37
1992835, 1710335225, "2024/3/13 13:7:5",  5,  -53,  1000,  0,  0,  -1,  -10,  -27,  -38
1993035, 1710335225, "2024/3/13 13:7:5",  3,  -57,  1001,  0,  0,  -1,  -9,  -25,  -39
1993235, 1710335225, "2024/3/13 13:7:5",  0,  -54,  1005,  0,  -1,  -1,  -8,  -26,  -38
1993435, 1710335225, "2024/3/13 13:7:5",  0,  -60,  1003,  0,  0,  -1,  -10,  -26,  -39
1993635, 1710335225, "2024/3/13 13:7:5",  -3,  -64,  1004,  0,  0,  -1,  -10,  -26,  -39
1993835, 1710335226, "2024/3/13 13:7:6",  -7,  -57,  1004,  0,  0,  0,  -11,  -26,  -38
1994035, 1710335226, "2024/3/13 13:7:6",  -4,  -58,  1001,  0,  0,  -1,  -9,  -25,  -38
1994235, 1710335226, "2024/3/13 13:7:6",  0,  -59,  1002,  0,  0,  0,  -9,  -25,  -38
1994435, 1710335226, "2024/3/13 13:7:6",  4,  -56,  1002,  0,  0,  0,  -8,  -25,  -37
1994635, 1710335226, "2024/3/13 13:7:6",  10,  -56,  1005,  0,  0,  -1,  -11,  -25,  -38
1994835, 1710335227, "2024/3/13 13:7:7",  9,  -54,  1005,  0,  0,  0,  -9,  -26,  -38
1995035, 1710335227, "2024/3/13 13:7:7",  7,  -59,  1003,  0,  0,  0,  -8,  -26,  -37
1995235, 1710335227, "2024/3/13 13:7:7",  9,  -58,  1004,  0,  0,  0,  -10,  -26,  -39
1995435, 1710335227, "2024/3/13 13:7:7",  8,  -56,  1003,  0,  -1,  -1,  -9,  -26,  -37
1995635, 1710335227, "2024/3/13 13:7:7",  15,  -52,  1002,  0,  0,  0,  -9,  -25,  -38
1995835, 1710335228, "2024/3/13 13:7:8",  11,  -62,  1006,  0,  0,  -1,  -9,  -24,  -39
1996035, 1710335228, "2024/3/13 13:7:8",  14,  -55,  1001,  0,  0,  -1,  -9,  -26,  -38
1996235, 1710335228, "2024/3/13 13:7:8",  10,  -56,  1005,  0,  0,  -1,  -9,  -25,  -36
1996435, 1710335228, "2024/3/13 13:7:8",  10,  -62,  1003,  0,  0,  0,  -10,  -27,  -39
1996635, 1710335228, "2024/3/13 13:7:8",  10,  -61,  1001,  0,  0,  -1,  -10,  -27,  -37
1996835, 1710335229, "2024/3/13 13:7:9",  8,  -57,  1004,  0,  0,  0,  -8,  -25,  -38
1997035, 1710335229, "2024/3/13 13:7:9",  2,  -60,  1005,  0,  -1,  -1,  -9,  -27,  -38
1997235, 1710335229, "2024/3/13 13:7:9",  2,  -51,  1002,  0,  0,  -1,  -9,  -26,  -40
1997435, 1710335229, "2024/3/13 13:7:9",  6,  -59,  999,  0,  0,  -1,  -10,  -26,  -39
1997635, 1710335229, "2024/3/13 13:7:9",  0,  -59,  1005,  0,  0,  0,  -10,  -26,  -38
1997835, 1710335230, "2024/3/13 13:7:10",  -6,  -56,  1003,  0,  0,  -1,  -9,  -26,  -37
1998035, 1710335230, "2024/3/13 13:7:10",  -2,  -64,  1003,  0,  0,  -1,  -11,  -25,  -38
1998235, 1710335230, "2024/3/13 13:7:10",  0,  -62,  1003,  0,  0,  -1,  -10,  -26,  -37
1998435, 1710335230, "2024/3/13 13:7:10",  4,  -55,  1006,  0,  0,  -1,  -9,  -24,  -39
1998635, 1710335230, "2024/3/13 13:7:10",  -1,  -53,  1000,  0,  0,  -1,  -8,  -24,  -40
1998835, 1710335231, "2024/3/13 13:7:11",  -2,  -58,  1004,  0,  0,  0,  -9,  -26,  -38
1999035, 1710335231, "2024/3/13 13:7:11",  5,  -54,  1004,  0,  -1,  0,  -8,  -27,  -35
1999235, 1710335231, "2024/3/13 13:7:11",  5,  -54,  1003,  0,  0,  -1,  -10,  -26,  -37
1999435, 1710335231, "2024/3/13 13:7:11",  4,  -59,  1006,  0,  0,  -1,  -9,  -25,  -37
1999635, 1710335231, "2024/3/13 13:7:11",  8,  -57,  1001,  0,  0,  -1,  -8,  -25,  -37
1999835, 1710335232, "2024/3/13 13:7:12",  6,  -62,  1004,  0,  0,  -1,  -9,  -25,  -38
2000035, 1710335232, "2024/3/13 13:7:12",  10,  -55,  1003,  0,  -1,  -1,  -11,  -25,  -38
2000235, 1710335232, "2024/3/13 13:7:12",  3,  -60,  1005,  0,  0,  0,  -10,  -27,  -38
2000435, 1710335232, "2024/3/13 13:7:12",  13,  -47,  1004,  0,  0,  -1,  -8,  -26,  -37
2000635, 1710335232, "2024/3/13 13:7:12",  9,  -59,  1001,  0,  0,  -1,  -9,  -25,  -37
2000835, 1710335233, "2024/3/13 13:7:13",  4,  -56,  1003,  0,  0,  -1,  -9,  -24,  -37
2001035, 1710335233, "2024/3/13 13:7:13",  9,  -60,  1004,  0,  0,  -1,  -8,  -27,  -38
2001235, 1710335233, "2024/3/13 13:7:13",  1,  -61,  1001,  0,  0,  0,  -10,  -27,  -39
2001435, 1710335233, "2024/3/13 13:7:13",  0,  -65,  1004,  0,  -1,  -1,  -8,  -26,  -37
2001635, 1710335233, "2024/3/13 13:7:13",  0,  -60,  1004,  0,  0,  -1,  -8,  -25,  -38
2001835, 1710335234, "2024/3/13 13:7:14",  -3,  -56,  998,  0,  0,  -1,  -11,  -27,  -37
2002035, 1710335234, "2024/3/13 13:7:14",  -2,  -57,  1006,  0,  -1,  -1,  -10,  -26,  -40
2002235, 1710335234, "2024/3/13 13:7:14",  2,  -58,  1002,  0,  0,  -1,  -9,  -24,  -38
2002435, 1710335234, "2024/3/13 13:7:14",  8,  -56,  1004,  0,  0,  0,  -10,  -25,  -38
2002635, 1710335234, "2024/3/13 13:7:14",  4,  -61,  1004,  0,  0,  -1,  -9,  -24,  -40
2002835, 1710335235, "2024/3/13 13:7:15",  12,  -52,  1003,  0,  0,  0,  -10,  -26,  -38
2003035, 1710335235, "2024/3/13 13:7:15",  11,  -58,  1004,  0,  0,  -1,  -11,  -26,  -37
2003235, 1710335235, "2024/3/13 13:7:15",  11,  -58,  1006,  0,  0,  0,  -9,  -25,  -37
2003435, 1710335235, "2024/3/13 13:7:15",  13,  -55,  1003,  0,  -1,  -1,  -10,  -27,  -37
2003635, 1710335235, "2024/3/13 13:7:15",  12,  -53,  1002,  0,  0,  0,  -10,  -26,  -38
2003835, 1710335236, "2024/3/13 13:7:16",  7,  -57,  1003,  0,  0,  0,  -9,  -27,  -38
2004035, 1710335236, "2024/3/13 13:7:16",  4,  -60,  1007,  0,  0,  -1,  -9,  -28,  -38
2004235, 1710335236, "2024/3/13 13:7:16",  5,  -57,  1003,  0,  0,  -1,  -9,  -26,  -38
2004435, 1710335236, "2024/3/13 13:7:16",  4,  -55,  1006,  0,  0,  0,  -9,  -27,  -37
2004635, 1710335236, "2024/3/13 13:7:16",  3,  -58,  1002,  0,  0,  0,  -8,  -25,  -37
2004835, 1710335237, "2024/3/13 13:7:17",  -1,  -58,  1004,  0,  0,  0,  -9,  -25,  -38
2005035, 1710335237, "2024/3/13 13:7:17",  -3,  -57,  1004,  0,  0,  -1,  -8,  -27,  -38
2005235, 1710335237, "2024/3/13 13:7:17",  -7,  -64,  1001,  0,  0,  0,  -10,  -26,  -37
2005435, 1710335237, "2024/3/13 13:7:17",  -7,  -52,  1003,  0,  0,  0,  -10,  -24,  -39
2005635, 1710335237, "2024/3/13 13:7:17",  -3,  -58,  1004,  0,  0,  0,  -9,  -27,  -40
2005835, 1710335238, "2024/3/13 13:7:18",  2,  -56,  1004,  0,  0,  -1,  -9,  -27,  -39
2006035, 1710335238, "2024/3/13 13:7:18",  6,  -57,  1003,  0,  0,  -1,  -8,  -25,  -40
2006235, 1710335238, "2024/3/13 13:7:18",  3,  -50,  1000,  0,  0,  0,  -10,  -26,  -37
2006435, 1710335238, "2024/3/13 13:7:18",  6,  -53,  1001,  0,  0,  0,  -9,  -26,  -38
2006635, 1710335238, "2024/3/13 13:7:18",  6,  -57,  1007,  0,  0,  0,  -10,  -25,  -39
2006835, 1710335239, "2024/3/13 13:7:19",  7,  -56,  1002,  0,  0,  -1,  -9,  -27,  -37
2007035, 1710335239, "2024/3/13 13:7:19",  12,  -52,  1003,  0,  0,  0,  -11,  -25,  -37
2007235, 1710335239, "2024/3/13 13:7:19",  10,  -54,  1004,  0,  0,  -1,  -8,  -26,  -39
2007435, 1710335239, "2024/3/13 13:7:19",  12,  -53,  1002,  0,  0,  -1,  -9,  -26,  -37
2007635, 1710335239, "2024/3/13 13:7:19",  10,  -49,  1000,  0,  0,  -1,  -9,  -26,  -38
2007835, 1710335240, "2024/3/13 13:7:20",  10,  -57,  1002,  0,  0,  0,  -10,  -25,  -38
2008035, 1710335240, "2024/3/13 13:7:20",  9,  -57,  1004,  0,  0,  -1,  -11,  -26,  -36
2008235, 1710335240, "2024/3/13 13:7:20",  9,  -57,  1004,  0,  0,  -1,  -8,  -27,  -37
2008435, 1710335240, "2024/3/13 13:7:20",  9,  -55,  998,  0,  0,  0,  -9,  -26,  -38
2008635, 1710335240, "2024/3/13 13:7:20",  12,  -53,  1004,  0,  0,  0,  -10,  -27,  -38
2008835, 1710335241, "2024/3/13 13:7:21",  12,  -57,  1006,  0,  -1,  -1,  -9,  -26,  -38
2009035, 1710335241, "2024/3/13 13:7:21",  8,  -60,  1008,  0,  0,  -1,  -9,  -26,  -38
2009235, 1710335241, "2024/3/13 13:7:21",  5,  -60,  1006,  0,  0,  -1,  -9,  -25,  -39
2009435, 1710335241, "2024/3/13 13:7:21",  9,  -56,  1003,  0,  0,  -1,  -9,  -27,  -38
2009635, 1710335241, "2024/3/13 13:7:21",  12,  -58,  1001,  0,  0,  -1,  -10,  -24,  -38
2009835, 1710335242, "2024/3/13 13:7:22",  8,  -64,  1003,  0,  0,  0,  -10,  -26,  -38
2010035, 1710335242, "2024/3/13 13:7:22",  6,  -63,  1007,  0,  0,  -1,  -9,  -25,  -37
2010235, 1710335242, "2024/3/13 13:7:22",  8,  -57,  1006,  0,  0,  -1,  -9,  -25,  -39
2010435, 1710335242, "2024/3/13 13:7:22",  -3,  -58,  1001,  0,  0,  -1,  -10,  -26,  -38
2010635, 1710335242, "2024/3/13 13:7:22",  3,  -58,  1004,  0,  0,  -1,  -10,  -26,  -40
2010835, 1710335243, "2024/3/13 13:7:23",  0,  -61,  1004,  0,  0,  -1,  -9,  -26,  -38
2011035, 1710335243, "2024/3/13 13:7:23",  0,  -61,  1004,  0,  0,  -1,  -9,  -27,  -39
2011235, 1710335243, "2024/3/13 13:7:23",  -3,  -61,  1004,  0,  0,  -1,  -10,  -25,  -38
2011435, 1710335243, "2024/3/13 13:7:23",  -2,  -60,  1001,  0,  0,  -1,  -10,  -25,  -39
2011635, 1710335243, "2024/3/13 13:7:23",  -1,  -63,  1004,  0,  0,  0,  -10,  -26,  -37
2011835, 1710335244, "2024/3/13 13:7:24",  -1,  -60,  1003,  0,  0,  -1,  -10,  -25,  -37
2012035, 1710335244, "2024/3/13 13:7:24",  -1,  -60,  1006,  0,  0,  -1,  -8,  -25,  -38
2012235, 1710335244, "2024/3/13 13:7:24",  0,  -58,  1003,  0,  -1,  -1,  -8,  -26,  -37
2012435, 1710335244, "2024/3/13 13:7:24",  4,  -55,  1006,  0,  0,  -1,  -9,  -26,  -40
2012635, 1710335244, "2024/3/13 13:7:24",  3,  -61,  1006,  0,  0,  -1,  -9,  -26,  -39
2012835, 1710335245, "2024/3/13 13:7:25",  0,  -53,  1002,  0,  -1,  -1,  -9,  -27,  -37
2013035, 1710335245, "2024/3/13 13:7:25",  9,  -52,  1003,  0,  0,  -1,  -10,  -26,  -39
2013235, 1710335245, "2024/3/13 13:7:25",  4,  -54,  1005,  0,  0,  -1,  -9,  -24,  -36
2013435, 1710335245, "2024/3/13 13:7:25",  8,  -58,  1005,  0,  0,  -1,  -9,  -26,  -38
2013635, 1710335245, "2024/3/13 13:7:25",  8,  -58,  1003,  0,  0,  0,  -10,  -26,  -37
2013835, 1710335246, "2024/3/13 13:7:26",  9,  -57,  1004,  0,  0,  -1,  -11,  -25,  -38
2014035, 1710335246, "2024/3/13 13:7:26",  9,  -58,  1000,  0,  0,  0,  -9,  -26,  -38
2014235, 1710335246, "2024/3/13 13:7:26",  10,  -56,  998,  0,  0,  -1,  -10,  -25,  -39
2014435, 1710335246, "2024/3/13 13:7:26",  10,  -55,  1005,  0,  -1,  -1,  -10,  -24,  -39
2014635, 1710335246, "2024/3/13 13:7:26",  8,  -50,  1006,  0,  0,  0,  -11,  -26,  -37
2014835, 1710335247, "2024/3/13 13:7:27",  10,  -47,  1008,  0,  0,  -1,  -11,  -26,  -39
2015035, 1710335247, "2024/3/13 13:7:27",  10,  -52,  1005,  0,  -1,  -1,  -9,  -26,  -37
2015235, 1710335247, "2024/3/13 13:7:27",  12,  -59,  1002,  0,  0,  0,  -10,  -26,  -39
2015435, 1710335247, "2024/3/13 13:7:27",  5,  -62,  1004,  0,  0,  -1,  -9,  -26,  -37
2015635, 1710335247, "2024/3/13 13:7:27",  6,  -54,  1006,  0,  0,  0,  -8,  -25,  -37
2015835, 1710335248, "2024/3/13 13:7:28",  0,  -56,  1000,  0,  0,  0,  -10,  -25,  -39
2016035, 1710335248, "2024/3/13 13:7:28",  -1,  -55,  1007,  0,  0,  -1,  -10,  -27,  -37
2016235, 1710335248, "2024/3/13 13:7:28",  2,  -60,  1004,  0,  0,  -1,  -10,  -25,  -37
2016435, 1710335248, "2024/3/13 13:7:28",  -4,  -61,  1005,  0,  0,  -1,  -10,  -25,  -37
2016635, 1710335248, "2024/3/13 13:7:28",  -3,  -54,  1003,  0,  0,  -1,  -9,  -25,  -39
2016835, 1710335249, "2024/3/13 13:7:29",  -7,  -59,  1002,  0,  0,  0,  -11,  -24,  -37
2017035, 1710335249, "2024/3/13 13:7:29",  -4,  -64,  1003,  0,  -1,  0,  -10,  -26,  -39
2017235, 1710335249, "2024/3/13 13:7:29",  6,  -58,  1004,  0,  0,  -1,  -9,  -26,  -38
2017435, 1710335249, "2024/3/13 13:7:29",  0,  -64,  1006,  0,  0,  -1,  -9,  -25,  -39
2017635, 1710335249, "2024/3/13 13:7:29",  3,  -63,  1000,  0,  -1,  -1,  -9,  -25,  -37
2017835, 1710335250, "2024/3/13 13:7:30",  -3,  -63,  999,  0,  0,  0,  -9,  -27,  -38
2018035, 1710335250, "2024/3/13 13:7:30",  0,  -63,  1004,  0,  0,  -1,  -10,  -25,  -36
2018235, 1710335250, "2024/3/13 13:7:30",  1,  -59,  998,  0,  0,  -1,  -10,  -25,  -39
2018435, 1710335250, "2024/3/13 13:7:30",  5,  -63,  1004,  0,  0,  0,  -9,  -25,  -39
2018635, 1710335250, "2024/3/13 13:7:30",  0,  -62,  1003,  0,  0,  0,  -10,  -26,  -39
2018835, 1710335251, "2024/3/13 13:7:31",  6,  -62,  1003,  0,  0,  -1,  -9,  -26,  -38
2019035, 1710335251, "2024/3/13 13:7:31",  1,  -63,  1004,  0,  0,  -1,  -9,  -25,  -37
2019235, 1710335251, "2024/3/13 13:7:31",  0,  -64,  1003,  0,  0,  0,  -10,  -26,  -38
2019435, 1710335251, "2024/3/13 13:7:31",  -1,  -53,  1007,  0,  -1,  -1,  -8,  -24,  -38
2019635, 1710335251, "2024/3/13 13:7:31",  8,  -56,  1002,  0,  0,  -1,  -9,  -27,  -38
2019835, 1710335252, "2024/3/13 13:7:32",  7,  -55,  1004,  0,  0,  0,  -10,  -25,  -39
2020035, 1710335252, "2024/3/13 13:7:32",  7,  -53,  1001,  0,  0,  0,  -9,  -25,  -38
2020235, 1710335252, "2024/3/13 13:7:32",  6,  -53,  1004,  0,  0,  0,  -10,  -25,  -39
2020435, 1710335252, "2024/3/13 13:7:32",  2,  -55,  1006,  0,  0,  0,  -8,  -25,  -37
2020635, 1710335252, "2024/3/13 13:7:32",  12,  -54,  1003,  0,  0,  -1,  -9,  -27,  -37
2020835, 1710335253, "2024/3/13 13:7:33",  13,  -56,  1002,  0,  0,  -1,  -11,  -27,  -41
2021035, 1710335253, "2024/3/13 13:7:33",  10,  -53,  1006,  0,  0,  -1,  -8,  -27,  -39
2021235, 1710335253, "2024/3/13 13:7:33",  10,  -50,  1003,  0,  0,  -1,  -10,  -26,  -38
2021435, 1710335253, "2024/3/13 13:7:33",  10,  -52,  1000,  0,  0,  0,  -10,  -24,  -40
2021635, 1710335253, "2024/3/13 13:7:33",  15,  -54,  1003,  0,  -1,  -1,  -10,  -25,  -38
2021835, 1710335254, "2024/3/13 13:7:34",  7,  -56,  1000,  0,  0,  -1,  -9,  -25,  -37
2022035, 1710335254, "2024/3/13 13:7:34",  13,  -52,  1003,  0,  0,  -1,  -9,  -27,  -37
2022235, 1710335254, "2024/3/13 13:7:34",  9,  -54,  1007,  0,  -1,  -1,  -10,  -25,  -38
2022435, 1710335254, "2024/3/13 13:7:34",  9,  -56,  1006,  0,  0,  -1,  -9,  -25,  -38
2022635, 1710335254, "2024/3/13 13:7:34",  5,  -64,  1004,  0,  0,  -1,  -9,  -25,  -38
2022835, 1710335255, "2024/3/13 13:7:35",  9,  -54,  1005,  0,  0,  -1,  -8,  -25,  -37
2023035, 1710335255, "2024/3/13 13:7:35",  8,  -60,  1004,  0,  0,  -1,  -9,  -25,  -38
2023235, 1710335255, "2024/3/13 13:7:35",  12,  -61,  1001,  0,  0,  0,  -9,  -25,  -38
2023435, 1710335255, "2024/3/13 13:7:35",  9,  -55,  1005,  0,  0,  -1,  -10,  -27,  -39
2023635, 1710335255, "2024/3/13 13:7:35",  4,  -60,  1001,  0,  0,  0,  -10,  -26,  -39
2023835, 1710335256, "2024/3/13 13:7:36",  1,  -58,  1001,  0,  0,  -1,  -9,  -27,  -38
2024035, 1710335256, "2024/3/13 13:7:36",  9,  -60,  1003,  0,  0,  -1,  -11,  -26,  -39
2024235, 1710335256, "2024/3/13 13:7:36",  6,  -61,  1006,  0,  0,  -1,  -8,  -26,  -38
2024435, 1710335256, "2024/3/13 13:7:36",  3,  -61,  1002,  0,  -1,  -1,  -8,  -26,  -37
2024635, 1710335256, "2024/3/13 13:7:36",  7,  -58,  1005,  0,  0,  -1,  -9,  -27,  -37
2024835, 1710335257, "2024/3/13 13:7:37",  6,  -59,  1001,  0,  0,  -1,  -10,  -27,  -38
2025035, 1710335257, "2024/3/13 13:7:37",  6,  -59,  1002,  0,  0,  -1,  -10,  -25,  -37
2025235, 1710335257, "2024/3/13 13:7:37",  3,  -52,  1008,  0,  0,  -1,  -10,  -24,  -39
2025435, 1710335257, "2024/3/13 13:7:37",  4,  -55,  1004,  0,  0,  0,  -9,  -27,  -38
2025635, 1710335257, "2024/3/13 13:7:37",  3,  -58,  1005,  0,  0,  -1,  -9,  -27,  -37
2025835, 1710335258, "2024/3/13 13:7:38",  0,  -58,  1005,  0,  0,  -1,  -9,  -25,  -39
2026035, 1710335258, "2024/3/13 13:7:38",  1,  -61,  1002,  0,  0,  0,  -9,  -25,  -38
2026235, 1710335258, "2024/3/13 13:7:38",  4,  -55,  1005,  0,  0,  -1,  -9,  -25,  -37
2026435, 1710335258, "2024/3/13 13:7:38",  2,  -60,  1004,  0,  0,  -1,  -8,  -27,  -39
2026635, 1710335258, "2024/3/13 13:7:38",  3,  -63,  1007,  0,  0,  -1,  -10,  -24,  -38
2026835, 1710335259, "2024/3/13 13:7:39",  0,  -63,  1003,  0,  0,  0,  -11,  -24,  -38
2027035, 1710335259, "2024/3/13 13:7:39",  3,  -56,  1003,  0,  0,  0,  -10,  -26,  -38
2027235, 1710335259, "2024/3/13 13:7:39",  3,  -50,  1003,  0,  -1,  0,  -9,  -26,  -38
2027435, 1710335259, "2024/3/13 13:7:39",  -1,  -62,  1000,  0,  0,  -1,  -9,  -25,  -38
