millis,stamp,datetime,accX,accY,accZ,gyroX,gyroY,gyroZ,compX,compY,compZ
186537, 1710333417, "2024/3/13 12:36:57",  3,  -60,  1002,  0,  -1,  0,  -10,  -26,  -36
186737, 1710333417, "2024/3/13 12:36:57",  9,  -58,  1002,  0,  0,  -1,  -12,  -26,  -36
186937, 1710333418, "2024/3/13 12:36:58",  6,  -59,  1007,  0,  0,  -1,  -11,  -26,  -35
187137, 1710333418, "2024/3/13 12:36:58",  7,  -55,  1001,  0,  0,  -1,  -12,  -26,  -35
187337, 1710333418, "2024/3/13 12:36:58",  2,  -61,  1006,  0,  0,  -1,  -10,  -24,  -35
187537, 1710333418, "2024/3/13 12:36:58",  5,  -56,  1001,  0,  0,  -1,  -11,  -26,  -34
187737, 1710333418, "2024/3/13 12:36:58",  4,  -61,  1005,  0,  0,  0,  -11,  -25,  -33
187937, 1710333419, "2024/3/13 12:36:59",  3,  -60,  1005,  0,  0,  0,  -12,  -25,  -35
188137, 1710333419, "2024/3/13 12:36:59",  2,  -62,  1005,  0,  0,  0,  -10,  -24,  -35
188337, 1710333419, "2024/3/13 12:36:59",  8,  -56,  1003,  0,  0,  0,  -11,  -25,  -34
188537, 1710333419, "2024/3/13 12:36:59",  2,  -56,  1002,  0,  0,  0,  -11,  -24,  -35
188737, 1710333419, "2024/3/13 12:36:59",  7,  -56,  1003,  0,  0,  -1,  -11,  -25,  -34
188937, 1710333420, "2024/3/13 12:37:0",  3,  -60,  1005,  0,  0,  0,  -11,  -25,  -34
189137, 1710333420, "2024/3/13 12:37:0",  5,  -53,  1008,  0,  0,  -1,  -12,  -27,  -35
189337, 1710333420, "2024/3/13 12:37:0",  8,  -62,  1003,  0,  0,  -1,  -10,  -26,  -35
189537, 1710333420, "2024/3/13 12:37:0",  7,  -55,  1004,  0,  0,  0,  -11,  -25,  -34
189737, 1710333420, "2024/3/13 12:37:0",  0,  -59,  1004,  0,  0,  -1,  -10,  -27,  -34
189937, 1710333421, "2024/3/13 12:37:1",  4,  -58,  1005,  0,  0,  0,  -12,  -26,  -36
190137, 1710333421, "2024/3/13 12:37:1",  6,  -58,  1003,  0,  0,  -1,  -11,  -25,  -34
190337, 1710333421, "2024/3/13 12:37:1",  3,  -59,  1004,  0,  0,  0,  -13,  -27,  -36
190537, 1710333421, "2024/3/13 12:37:1",  5,  -60,  1005,  0,  0,  -1,  -10,  -25,  -35
190737, 1710333421, "2024/3/13 12:37:1",  8,  -56,  1000,  0,  0,  -1,  -11,  -27,  -34
190937, 1710333422, "2024/3/13 12:37:2",  4,  -62,  1004,  0,  0,  -1,  -11,  -26,  -34
191137, 1710333422, "2024/3/13 12:37:2",  4,  -59,  1003,  0,  -1,  -1,  -11,  -25,  -35
191337, 1710333422, "2024/3/13 12:37:2",  3,  -57,  1003,  0,  0,  -1,  -11,  -26,  -35
191537, 1710333422, "2024/3/13 12:37:2",  2,  -57,  1003,  0,  0,  -1,  -12,  -26,  -36
191737, 1710333422, "2024/3/13 12:37:2",  5,  -57,  1004,  0,  0,  0,  -11,  -26,  -36
191937, 1710333423, "2024/3/13 12:37:3",  8,  -62,  1002,  0,  0,  -1,  -11,  -25,  -36
192137, 1710333423, "2024/3/13 12:37:3",  8,  -53,  1004,  0,  -1,  -1,  -12,  -25,  -35
192337, 1710333423, "2024/3/13 12:37:3",  6,  -62,  1004,  0,  0,  -1,  -13,  -24,  -35
192537, 1710333423, "2024/3/13 12:37:3",  3,  -55,  1006,  0,  0,  -1,  -11,  -25,  -34
192737, 1710333423, "2024/3/13 12:37:3",  3,  -56,  1001,  0,  0,  -1,  -10,  -25,  -35
192937, 1710333424, "2024/3/13 12:37:4",  9,  -56,  1003,  0,  -1,  -1,  -11,  -27,  -37
193137, 1710333424, "2024/3/13 12:37:4",  11,  -58,  1003,  0,  0,  0,  -12,  -25,  -35
193337, 1710333424, "2024/3/13 12:37:4",  5,  -55,  998,  0,  0,  0,  -12,  -27,  -36
193537, 1710333424, "2024/3/13 12:37:4",  11,  -54,  1004,  0,  0,  -1,  -13,  -26,  -36
193737, 1710333424, "2024/3/13 12:37:4",  8,  -58,  1003,  0,  0,  -1,  -12,  -27,  -36
193937, 1710333425, "2024/3/13 12:37:5",  9,  -58,  998,  0,  0,  -1,  -12,  -26,  -36
194137, 1710333425, "2024/3/13 12:37:5",  5,  -56,  1002,  0,  0,  -1,  -13,  -25,  -36
194337, 1710333425, "2024/3/13 12:37:5",  3,  -55,  1003,  0,  -1,  -1,  -11,  -24,  -36
194537, 1710333425, "2024/3/13 12:37:5",  0,  -59,  1000,  0,  0,  0,  -10,  -25,  -36
194737, 1710333425, "2024/3/13 12:37:5",  4,  -54,  1002,  0,  -1,  -1,  -13,  -25,  -36
194937, 1710333426, "2024/3/13 12:37:6",  3,  -61,  1003,  0,  -1,  -1,  -11,  -25,  -38
195137, 1710333426, "2024/3/13 12:37:6",  -2,  -63,  1000,  0,  0,  -1,  -12,  -27,  -36
195337, 1710333426, "2024/3/13 12:37:6",  0,  -60,  1006,  0,  0,  0,  -11,  -25,  -36
195537, 1710333426, "2024/3/13 12:37:6",  7,  -58,  1002,  0,  0,  -1,  -11,  -25,  -37
195737, 1710333426, "2024/3/13 12:37:6",  5,  -52,  1002,  0,  0,  0,  -11,  -25,  -36
195937, 1710333427, "2024/3/13 12:37:7",  2,  -62,  1006,  0,  0,  -1,  -10,  -27,  -38
196137, 1710333427, "2024/3/13 12:37:7",  8,  -59,  1002,  0,  0,  0,  -11,  -25,  -36
196337, 1710333427, "2024/3/13 12:37:7",  0,  -61,  1002,  0,  -1,  -1,  -13,  -27,  -35
196537, 1710333427, "2024/3/13 12:37:7",  3,  -60,  1003,  0,  0,  -1,  -12,  -25,  -36
196737, 1710333427, "2024/3/13 12:37:7",  5,  -57,  1006,  0,  -1,  -1,  -11,  -27,  -36
196937, 1710333428, "2024/3/13 12:37:8",  8,  -63,  1004,  0,  0,  0,  -11,  -26,  -37
197137, 1710333428, "2024/3/13 12:37:8",  6,  -57,  1007,  0,  0,  -1,  -11,  -24,  -35
197337, 1710333428, "2024/3/13 12:37:8",  0,  -56,  1003,  0,  0,  0,  -10,  -25,  -36
197537, 1710333428, "2024/3/13 12:37:8",  4,  -63,  1003,  0,  0,  0,  -12,  -25,  -37
197737, 1710333428, "2024/3/13 12:37:8",  4,  -59,  1006,  0,  0,  -1,  -12,  -25,  -35
197937, 1710333429, "2024/3/13 12:37:9",  4,  -53,  1003,  0,  0,  -1,  -11,  -26,  -36
198137, 1710333429, "2024/3/13 12:37:9",  6,  -59,  1003,  0,  0,  0,  -12,  -29,  -36
198337, 1710333429, "2024/3/13 12:37:9",  2,  -61,  1005,  0,  0,  0,  -11,  -28,  -36
198537, 1710333429, "2024/3/13 12:37:9",  5,  -58,  1000,  0,  0,  -1,  -12,  -25,  -36
198737, 1710333429, "2024/3/13 12:37:9",  4,  -61,  1003,  0,  0,  0,  -13,  -26,  -35
198937, 1710333430, "2024/3/13 12:37:10",  7,  -59,  1002,  0,  0,  -1,  -12,  -25,  -34
199137, 1710333430, "2024/3/13 12:37:10",  2,  -55,  1003,  0,  0,  -1,  -11,  -25,  -37
199337, 1710333430, "2024/3/13 12:37:10",  2,  -60,  1004,  0,  0,  -1,  -12,  -26,  -36
199537, 1710333430, "2024/3/13 12:37:10",  0,  -59,  1005,  0,  0,  -1,  -12,  -25,  -36
199737, 1710333430, "2024/3/13 12:37:10",  2,  -58,  1008,  0,  0,  -1,  -12,  -26,  -34
199937, 1710333431, "2024/3/13 12:37:11",  4,  -55,  1004,  0,  0,  0,  -11,  -26,  -36
200137, 1710333431, "2024/3/13 12:37:11",  5,  -56,  1007,  0,  0,  -1,  -13,  -25,  -36
200337, 1710333431, "2024/3/13 12:37:11",  3,  -55,  1006,  0,  0,  -1,  -12,  -25,  -36
200537, 1710333431, "2024/3/13 12:37:11",  1,  -57,  1003,  0,  0,  0,  -13,  -28,  -34
200737, 1710333431, "2024/3/13 12:37:11",  3,  -56,  1001,  0,  0,  0,  -11,  -27,  -37
200937, 1710333432, "2024/3/13 12:37:12",  4,  -56,  1006,  0,  0,  0,  -11,  -25,  -33
201137, 1710333432, "2024/3/13 12:37:12",  1,  -58,  1003,  0,  0,  0,  -11,  -25,  -35
201337, 1710333432, "2024/3/13 12:37:12",  5,  -60,  1004,  0,  0,  -1,  -12,  -24,  -37
201537, 1710333432, "2024/3/13 12:37:12",  6,  -58,  1002,  0,  0,  -1,  -12,  -25,  -37
201737, 1710333432, "2024/3/13 12:37:12",  7,  -60,  1003,  0,  -1,  0,  -10,  -27,  -36
201937, 1710333433, "2024/3/13 12:37:13",  3,  -55,  1005,  0,  0,  -1,  -12,  -25,  -37
202137, 1710333433, "2024/3/13 12:37:13",  8,  -55,  1000,  0,  0,  0,  -12,  -25,  -34
202337, 1710333433, "2024/3/13 12:37:13",  4,  -55,  1002,  0,  0,  -1,  -13,  -27,  -36
202537, 1710333433, "2024/3/13 12:37:13",  4,  -57,  1005,  0,  0,  0,  -11,  -26,  -36
202737, 1710333433, "2024/3/13 12:37:13",  5,  -60,  1003,  0,  0,  -1,  -11,  -25,  -34
202937, 1710333434, "2024/3/13 12:37:14",  8,  -64,  1005,  0,  0,  -1,  -11,  -24,  -36
203137, 1710333434, "2024/3/13 12:37:14",  4,  -51,  1007,  0,  0,  -1,  -10,  -25,  -36
203337, 1710333434, "2024/3/13 12:37:14",  4,  -58,  1007,  0,  0,  0,  -12,  -26,  -36
203537, 1710333434, "2024/3/13 12:37:14",  5,  -57,  1004,  0,  0,  -1,  -12,  -27,  -36
203737, 1710333434, "2024/3/13 12:37:14",  2,  -54,  1002,  0,  0,  0,  -11,  -26,  -36
203937, 1710333435, "2024/3/13 12:37:15",  5,  -59,  1005,  0,  0,  -1,  -11,  -27,  -36
204137, 1710333435, "2024/3/13 12:37:15",  1,  -56,  1003,  0,  -1,  -1,  -12,  -25,  -36
204337, 1710333435, "2024/3/13 12:37:15",  4,  -60,  1007,  0,  0,  -1,  -11,  -27,  -36
204537, 1710333435, "2024/3/13 12:37:15",  5,  -59,  1002,  0,  0,  0,  -10,  -24,  -36
204737, 1710333435, "2024/3/13 12:37:15",  4,  -61,  1003,  0,  0,  -1,  -12,  -24,  -35
204937, 1710333436, "2024/3/13 12:37:16",  3,  -59,  1003,  0,  0,  -1,  -12,  -27,  -36
205137, 1710333436, "2024/3/13 12:37:16",  10,  -58,  1008,  0,  0,  0,  -12,  -26,  -37
205337, 1710333436, "2024/3/13 12:37:16",  4,  -58,  1002,  0,  0,  -1,  -12,  -25,  -37
205537, 1710333436, "2024/3/13 12:37:16",  5,  -55,  1004,  0,  -1,  -1,  -11,  -26,  -36
205737, 1710333436, "2024/3/13 12:37:16",  7,  -59,  1005,  0,  0,  -1,  -12,  -26,  -35
205937, 1710333437, "2024/3/13 12:37:17",  0,  -51,  1006,  0,  0,  -1,  -10,  -27,  -36
206137, 1710333437, "2024/3/13 12:37:17",  -2,  -54,  1003,  0,  0,  -1,  -10,  -24,  -36
206337, 1710333437, "2024/3/13 12:37:17",  0,  -61,  999,  0,  0,  0,  -11,  -26,  -37
206537, 1710333437, "2024/3/13 12:37:17",  0,  -62,  1004,  0,  -1,  0,  -11,  -26,  -37
206737, 1710333437, "2024/3/13 12:37:17",  3,  -55,  998,  0,  0,  -1,  -11,  -27,  -36
206937, 1710333438, "2024/3/13 12:37:18",  6,  -59,  1005,  0,  0,  -1,  -12,  -25,  -36
207137, 1710333438, "2024/3/13 12:37:18",  3,  -55,  1002,  0,  0,  0,  -12,  -27,  -35
207337, 1710333438, "2024/3/13 12:37:18",  5,  -56,  1004,  0,  0,  -1,  -12,  -26,  -37
207537, 1710333438, "2024/3/13 12:37:18",  8,  -58,  1004,  0,  0,  0,  -12,  -27,  -36
207737, 1710333438, "2024/3/13 12:37:18",  3,  -48,  1004,  0,  0,  -1,  -13,  -25,  -36
207937, 1710333439, "2024/3/13 12:37:19",  0,  -59,  1001,  0,  0,  0,  -11,  -25,  -37
208137, 1710333439, "2024/3/13 12:37:19",  6,  -61,  1007,  0,  -1,  -1,  -12,  -26,  -36
208337, 1710333439, "2024/3/13 12:37:19",  8,  -60,  1007,  1,  0,  -1,  -12,  -25,  -36
208537, 1710333439, "2024/3/13 12:37:19",  6,  -55,  1005,  0,  0,  -1,  -12,  -26,  -36
208737, 1710333439, "2024/3/13 12:37:19",  1,  -64,  1002,  0,  0,  -1,  -11,  -26,  -35
208937, 1710333440, "2024/3/13 12:37:20",  6,  -58,  1002,  0,  0,  0,  -13,  -26,  -36
209137, 1710333440, "2024/3/13 12:37:20",  3,  -57,  1007,  0,  0,  0,  -12,  -24,  -36
209337, 1710333440, "2024/3/13 12:37:20",  3,  -61,  1006,  0,  -1,  0,  -12,  -27,  -36
209537, 1710333440, "2024/3/13 12:37:20",  6,  -53,  1002,  0,  -1,  0,  -11,  -26,  -36
209737, 1710333440, "2024/3/13 12:37:20",  2,  -54,  1008,  0,  0,  -1,  -11,  -24,  -36
209937, 1710333441, "2024/3/13 12:37:21",  2,  -60,  1001,  0,  0,  0,  -12,  -27,  -36
210137, 1710333441, "2024/3/13 12:37:21",  8,  -59,  1004,  0,  0,  -1,  -12,  -26,  -36
210337, 1710333441, "2024/3/13 12:37:21",  7,  -59,  1003,  0,  0,  -1,  -11,  -27,  -36
210537, 1710333441, "2024/3/13 12:37:21",  5,  -59,  1007,  0,  0,  -1,  -10,  -25,  -35
210737, 1710333441, "2024/3/13 12:37:21",  5,  -58,  1003,  0,  0,  0,  -12,  -25,  -36
210937, 1710333442, "2024/3/13 12:37:22",  5,  -55,  1003,  0,  -1,  -1,  -11,  -27,  -36
211137, 1710333442, "2024/3/13 12:37:22",  3,  -61,  1004,  0,  0,  -1,  -12,  -25,  -36
211337, 1710333442, "2024/3/13 12:37:22",  6,  -67,  1020,  0,  0,  -1,  -11,  -24,  -34
211537, 1710333442, "2024/3/13 12:37:22",  2,  -59,  1000,  0,  0,  -1,  -11,  -26,  -35
211737, 1710333442, "2024/3/13 12:37:22",  4,  -62,  1003,  0,  -1,  -1,  -11,  -25,  -34
211937, 1710333443, "2024/3/13 12:37:23",  1,  -59,  1006,  0,  0,  0,  -12,  -26,  -35
212137, 1710333443, "2024/3/13 12:37:23",  6,  -55,  1005,  0,  0,  -1,  -13,  -26,  -36
212337, 1710333443, "2024/3/13 12:37:23",  6,  -62,  1006,  0,  0,  -1,  -11,  -25,  -35
212537, 1710333443, "2024/3/13 12:37:23",  7,  -62,  1000,  0,  0,  -1,  -10,  -25,  -35
212737, 1710333443, "2024/3/13 12:37:23",  6,  -58,  1002,  0,  0,  -1,  -11,  -26,  -37
212937, 1710333444, "2024/3/13 12:37:24",  7,  -56,  1004,  0,  0,  0,  -11,  -26,  -37
213137, 1710333444, "2024/3/13 12:37:24",  6,  -57,  1004,  0,  0,  -1,  -11,  -26,  -36
213337, 1710333444, "2024/3/13 12:37:24",  2,  -63,  1001,  0,  0,  -1,  -12,  -26,  -37
213537, 1710333444, "2024/3/13 12:37:24",  3,  -61,  1003,  0,  0,  -1,  -11,  -26,  -36
213737, 1710333444, "2024/3/13 12:37:24",  2,  -64,  1004,  0,  0,  -1,  -12,  -26,  -36
213937, 1710333445, "2024/3/13 12:37:25",  6,  -61,  1002,  0,  0,  0,  -13,  -26,  -37
214137, 1710333445, "2024/3/13 12:37:25",  7,  -57,  1000,  0,  0,  -1,  -12,  -25,  -36
214337, 1710333445, "2024/3/13 12:37:25",  8,  -58,  1001,  0,  0,  0,  -13,  -24,  -36
214537, 1710333445, "2024/3/13 12:37:25",  3,  -62,  1003,  0,  0,  0,  -14,  -26,  -35
214737, 1710333445, "2024/3/13 12:37:25",  1,  -58,  1004,  0,  -1,  0,  -13,  -26,  -35
214937, 1710333446, "2024/3/13 12:37:26",  7,  -61,  1004,  0,  0,  0,  -12,  -26,  -37
215137, 1710333446, "2024/3/13 12:37:26",  3,  -61,  1006,  0,  0,  0,  -11,  -26,  -35
215337, 1710333446, "2024/3/13 12:37:26",  5,  -60,  1002,  0,  0,  -1,  -13,  -27,  -36
215537, 1710333446, "2024/3/13 12:37:26",  3,  -59,  1005,  0,  0,  0,  -12,  -27,  -36
215737, 1710333446, "2024/3/13 12:37:26",  7,  -62,  1005,  0,  0,  0,  -12,  -25,  -37
215937, 1710333447, "2024/3/13 12:37:27",  4,  -57,  1000,  0,  -1,  -1,  -14,  -26,  -35
216137, 1710333447, "2024/3/13 12:37:27",  7,  -63,  1008,  0,  0,  0,  -14,  -27,  -37
216337, 1710333447, "2024/3/13 12:37:27",  6,  -63,  1004,  0,  0,  -1,  -12,  -27,  -36
216537, 1710333447, "2024/3/13 12:37:27",  6,  -61,  1006,  0,  0,  -1,  -13,  -26,  -37
216737, 1710333447, "2024/3/13 12:37:27",  7,  -56,  1005,  0,  0,  -1,  -12,  -25,  -36
216937, 1710333448, "2024/3/13 12:37:28",  3,  -56,  1006,  0,  0,  -1,  -12,  -26,  -36
217137, 1710333448, "2024/3/13 12:37:28",  1,  -53,  1003,  0,  0,  0,  -12,  -24,  -36
217337, 1710333448, "2024/3/13 12:37:28",  5,  -55,  1007,  1,  0,  0,  -11,  -26,  -36
217537, 1710333448, "2024/3/13 12:37:28",  0,  -56,  988,  0,  0,  -1,  -11,  -25,  -36
217737, 1710333448, "2024/3/13 12:37:28",  3,  -55,  1003,  0,  0,  -1,  -11,  -26,  -35
217937, 1710333449, "2024/3/13 12:37:29",  1,  -62,  1005,  0,  0,  -1,  -13,  -26,  -37
218137, 1710333449, "2024/3/13 12:37:29",  4,  -57,  1004,  0,  0,  0,  -11,  -26,  -36
218337, 1710333449, "2024/3/13 12:37:29",  0,  -54,  1005,  0,  0,  0,  -11,  -27,  -37
218537, 1710333449, "2024/3/13 12:37:29",  7,  -59,  1000,  0,  0,  -1,  -12,  -28,  -36
218737, 1710333449, "2024/3/13 12:37:29",  5,  -63,  1006,  0,  0,  0,  -12,  -26,  -35
218937, 1710333450, "2024/3/13 12:37:30",  5,  -63,  1002,  0,  0,  -1,  -12,  -25,  -36
219137, 1710333450, "2024/3/13 12:37:30",  4,  -56,  1004,  0,  0,  -1,  -11,  -27,  -37
219337, 1710333450, "2024/3/13 12:37:30",  6,  -58,  1004,  0,  0,  -1,  -12,  -25,  -36
219537, 1710333450, "2024/3/13 12:37:30",  3,  -54,  1001,  0,  0,  0,  -12,  -25,  -36
219737, 1710333450, "2024/3/13 12:37:30",  7,  -57,  1004,  0,  -1,  0,  -11,  -25,  -37
219937, 1710333451, "2024/3/13 12:37:31",  3,  -55,  1004,  0,  -1,  -1,  -12,  -25,  -36
220137, 1710333451, "2024/3/13 12:37:31",  -1,  -55,  1002,  0,  0,  0,  -12,  -25,  -34
220337, 1710333451, "2024/3/13 12:37:31",  2,  -57,  1001,  0,  0,  -1,  -11,  -26,  -37
220537, 1710333451, "2024/3/13 12:37:31",  1,  -61,  1001,  0,  0,  -1,  -10,  -25,  -36
220737, 1710333451, "2024/3/13 12:37:31",  3,  -57,  1003,  0,  0,  0,  -12,  -25,  -35
220937, 1710333452, "2024/3/13 12:37:32",  3,  -61,  1003,  0,  0,  0,  -11,  -27,  -37
221137, 1710333452, "2024/3/13 12:37:32",  0,  -59,  1005,  0,  0,  -1,  -11,  -27,  -36
221337, 1710333452, "2024/3/13 12:37:32",  2,  -62,  1006,  0,  -1,  -1,  -12,  -26,  -37
221537, 1710333452, "2024/3/13 12:37:32",  6,  -58,  1002,  0,  -1,  0,  -13,  -27,  -37
221737, 1710333452, "2024/3/13 12:37:32",  8,  -58,  1002,  0,  0,  -1,  -12,  -26,  -37
221937, 1710333453, "2024/3/13 12:37:33",  0,  -60,  1005,  0,  0,  -1,  -12,  -26,  -36
222137, 1710333453, "2024/3/13 12:37:33",  5,  -62,  1003,  0,  0,  0,  -12,  -25,  -36
222337, 1710333453, "2024/3/13 12:37:33",  5,  -59,  1001,  0,  0,  0,  -12,  -26,  -37
222537, 1710333453, "2024/3/13 12:37:33",  5,  -57,  1008,  0,  0,  -1,  -11,  -27,  -36
222737, 1710333453, "2024/3/13 12:37:33",  9,  -56,  1002,  0,  0,  0,  -11,  -25,  -35
222937, 1710333454, "2024/3/13 12:37:34",  4,  -57,  1001,  0,  0,  0,  -11,  -25,  -36
223137, 1710333454, "2024/3/13 12:37:34",  2,  -57,  1003,  0,  0,  -1,  -11,  -26,  -35
223337, 1710333454, "2024/3/13 12:37:34",  1,  -60,  1004,  0,  0,  -1,  -12,  -24,  -37
223537, 1710333454, "2024/3/13 12:37:34",  7,  -56,  1002,  0,  0,  -1,  -11,  -26,  -36
223737, 1710333454, "2024/3/13 12:37:34",  5,  -56,  1005,  0,  0,  -1,  -10,  -27,  -37
223937, 1710333455, "2024/3/13 12:37:35",  5,  -59,  1005,  0,  -1,  -1,  -11,  -25,  -36
224137, 1710333455, "2024/3/13 12:37:35",  7,  -59,  1002,  0,  0,  -1,  -10,  -25,  -36
224337, 1710333455, "2024/3/13 12:37:35",  1,  -53,  1008,  0,  -1,  -1,  -12,  -26,  -35
224537, 1710333455, "2024/3/13 12:37:35",  7,  -59,  1004,  0,  0,  0,  -11,  -25,  -36
224737, 1710333455, "2024/3/13 12:37:35",  9,  -62,  1002,  0,  0,  0,  -11,  -27,  -37
224937, 1710333456, "2024/3/13 12:37:36",  3,  -57,  1003,  0,  0,  -1,  -10,  -25,  -36
225137, 1710333456, "2024/3/13 12:37:36",  8,  -57,  1005,  0,  0,  -1,  -13,  -26,  -36
225337, 1710333456, "2024/3/13 12:37:36",  4,  -58,  1001,  0,  0,  0,  -11,  -25,  -36
225537, 1710333456, "2024/3/13 12:37:36",  6,  -59,  1002,  0,  0,  -1,  -12,  -27,  -35
225737, 1710333456, "2024/3/13 12:37:36",  10,  -61,  1006,  0,  0,  -1,  -10,  -26,  -34
225937, 1710333457, "2024/3/13 12:37:37",  4,  -60,  1007,  0,  0,  -1,  -13,  -26,  -36
226137, 1710333457, "2024/3/13 12:37:37",  3,  -52,  1001,  0,  0,  0,  -10,  -27,  -36
226337, 1710333457, "2024/3/13 12:37:37",  5,  -58,  1006,  0,  0,  0,  -11,  -27,  -36
226537, 1710333457, "2024/3/13 12:37:37",  1,  -57,  1005,  0,  0,  -1,  -12,  -27,  -35
226737, 1710333457, "2024/3/13 12:37:37",  6,  -57,  1000,  0,  0,  0,  -11,  -26,  -35
226937, 1710333458, "2024/3/13 12:37:38",  7,  -60,  1001,  0,  0,  0,  -11,  -27,  -35
227137, 1710333458, "2024/3/13 12:37:38",  7,  -50,  1002,  0,  0,  -1,  -12,  -27,  -36
227337, 1710333458, "2024/3/13 12:37:38",  9,  -56,  1006,  0,  0,  -1,  -11,  -26,  -35
227537, 1710333458, "2024/3/13 12:37:38",  6,  -59,  1002,  0,  0,  -1,  -13,  -26,  -38
227737, 1710333458, "2024/3/13 12:37:38",  3,  -54,  1001,  0,  0,  -1,  -11,  -27,  -36
227937, 1710333459, "2024/3/13 12:37:39",  3,  -54,  1005,  0,  -1,  -1,  -12,  -27,  -36
228137, 1710333459, "2024/3/13 12:37:39",  2,  -57,  1003,  0,  -1,  -1,  -12,  -25,  -35
228337, 1710333459, "2024/3/13 12:37:39",  5,  -54,  1005,  0,  -1,  -1,  -12,  -27,  -35
228537, 1710333459, "2024/3/13 12:37:39",  1,  -61,  1002,  0,  0,  0,  -12,  -27,  -37
228737, 1710333459, "2024/3/13 12:37:39",  7,  -53,  1003,  0,  0,  -1,  -12,  -26,  -36
228937, 1710333460, "2024/3/13 12:37:40",  6,  -57,  1004,  0,  0,  0,  -11,  -26,  -36
229137, 1710333460, "2024/3/13 12:37:40",  6,  -60,  1003,  0,  0,  -1,  -11,  -27,  -36
229337, 1710333460, "2024/3/13 12:37:40",  6,  -57,  1007,  0,  0,  -1,  -14,  -25,  -36
229537, 1710333460, "2024/3/13 12:37:40",  8,  -58,  1007,  0,  0,  0,  -13,  -25,  -36
229737, 1710333460, "2024/3/13 12:37:40",  2,  -59,  1003,  0,  -1,  -1,  -12,  -26,  -36
229937, 1710333461, "2024/3/13 12:37:41",  3,  -49,  1005,  0,  0,  0,  -13,  -26,  -37
230137, 1710333461, "2024/3/13 12:37:41",  7,  -60,  1005,  0,  0,  -1,  -12,  -27,  -36
230337, 1710333461, "2024/3/13 12:37:41",  9,  -58,  1005,  0,  0,  0,  -12,  -26,  -35
230537, 1710333461, "2024/3/13 12:37:41",  7,  -56,  1004,  0,  0,  -1,  -10,  -28,  -36
230737, 1710333461, "2024/3/13 12:37:41",  6,  -56,  1003,  0,  0,  0,  -11,  -25,  -37
230937, 1710333462, "2024/3/13 12:37:42",  6,  -58,  1003,  0,  0,  0,  -11,  -25,  -37
231137, 1710333462, "2024/3/13 12:37:42",  4,  -57,  1006,  0,  0,  -1,  -12,  -25,  -36
231337, 1710333462, "2024/3/13 12:37:42",  9,  -58,  1002,  0,  0,  -1,  -12,  -25,  -35
231537, 1710333462, "2024/3/13 12:37:42",  5,  -57,  1002,  0,  0,  -1,  -12,  -27,  -35
231737, 1710333462, "2024/3/13 12:37:42",  4,  -60,  1005,  0,  0,  0,  -11,  -26,  -36
231937, 1710333463, "2024/3/13 12:37:43",  2,  -56,  1002,  0,  -1,  -1,  -13,  -26,  -36
232137, 1710333463, "2024/3/13 12:37:43",  3,  -57,  1001,  0,  0,  0,  -10,  -26,  -35
232337, 1710333463, "2024/3/13 12:37:43",  5,  -56,  1004,  0,  0,  -1,  -11,  -26,  -35
232537, 1710333463, "2024/3/13 12:37:43",  7,  -60,  1008,  0,  0,  -1,  -14,  -26,  -38
232737, 1710333463, "2024/3/13 12:37:43",  5,  -55,  1003,  0,  0,  -1,  -12,  -26,  -36
232937, 1710333464, "2024/3/13 12:37:44",  1,  -58,  1004,  0,  0,  -1,  -11,  -26,  -37
233137, 1710333464, "2024/3/13 12:37:44",  8,  -56,  1004,  0,  0,  -1,  -13,  -26,  -36
233337, 1710333464, "2024/3/13 12:37:44",  4,  -53,  1003,  0,  0,  0,  -12,  -25,  -36
233537, 1710333464, "2024/3/13 12:37:44",  -1,  -62,  1001,  0,  0,  0,  -12,  -27,  -36
233737, 1710333464, "2024/3/13 12:37:44",  1,  -60,  1004,  0,  0,  -1,  -11,  -25,  -36
233937, 1710333465, "2024/3/13 12:37:45",  7,  -57,  1002,  0,  0,  -1,  -11,  -26,  -36
234137, 1710333465, "2024/3/13 12:37:45",  4,  -56,  1003,  0,  0,  -1,  -12,  -25,  -36
234337, 1710333465, "2024/3/13 12:37:45",  5,  -56,  1003,  0,  0,  0,  -11,  -26,  -37
234537, 1710333465, "2024/3/13 12:37:45",  8,  -58,  1006,  0,  0,  0,  -12,  -26,  -36
234737, 1710333465, "2024/3/13 12:37:45",  6,  -53,  1003,  0,  0,  0,  -10,  -24,  -37
234937, 1710333466, "2024/3/13 12:37:46",  11,  -54,  1005,  0,  -1,  0,  -11,  -26,  -36
235137, 1710333466, "2024/3/13 12:37:46",  3,  -58,  1003,  0,  0,  -1,  -12,  -25,  -36
235337, 1710333466, "2024/3/13 12:37:46",  7,  -59,  1003,  0,  -1,  0,  -11,  -25,  -37
235537, 1710333466, "2024/3/13 12:37:46",  3,  -59,  1003,  0,  0,  -1,  -11,  -26,  -35
235737, 1710333466, "2024/3/13 12:37:46",  4,  -59,  1006,  0,  0,  -1,  -14,  -26,  -36
235937, 1710333467, "2024/3/13 12:37:47",  11,  -56,  1006,  0,  -1,  -1,  -12,  -25,  -35
236137, 1710333467, "2024/3/13 12:37:47",  4,  -56,  1002,  0,  0,  0,  -11,  -25,  -35
236337, 1710333467, "2024/3/13 12:37:47",  4,  -61,  1002,  0,  0,  -1,  -13,  -25,  -34
236537, 1710333467, "2024/3/13 12:37:47",  7,  -56,  1003,  0,  0,  -1,  -11,  -28,  -37
236737, 1710333467, "2024/3/13 12:37:47",  4,  -60,  1003,  0,  0,  -1,  -11,  -26,  -38
236937, 1710333468, "2024/3/13 12:37:48",  6,  -58,  1004,  0,  0,  0,  -12,  -26,  -35
237137, 1710333468, "2024/3/13 12:37:48",  1,  -56,  1003,  0,  0,  0,  -12,  -24,  -35
237337, 1710333468, "2024/3/13 12:37:48",  -1,  -61,  1003,  0,  -1,  0,  -12,  -25,  -36
237537, 1710333468, "2024/3/13 12:37:48",  2,  -56,  1005,  0,  0,  -1,  -10,  -26,  -37
237737, 1710333468, "2024/3/13 12:37:48",  6,  -59,  1004,  0,  0,  0,  -11,  -26,  -36
237937, 1710333469, "2024/3/13 12:37:49",  7,  -57,  1003,  0,  0,  -1,  -13,  -25,  -37
238137, 1710333469, "2024/3/13 12:37:49",  9,  -54,  1004,  0,  0,  0,  -11,  -25,  -36
238337, 1710333469, "2024/3/13 12:37:49",  8,  -58,  1007,  0,  0,  0,  -12,  -27,  -36
238537, 1710333469, "2024/3/13 12:37:49",  9,  -59,  1001,  0,  -1,  0,  -12,  -26,  -36
238737, 1710333469, "2024/3/13 12:37:49",  9,  -58,  1005,  0,  0,  -1,  -12,  -25,  -36
238937, 1710333470, "2024/3/13 12:37:50",  3,  -61,  1003,  0,  0,  0,  -11,  -27,  -35
239137, 1710333470, "2024/3/13 12:37:50",  6,  -57,  1003,  0,  -1,  -1,  -10,  -26,  -36
239337, 1710333470, "2024/3/13 12:37:50",  8,  -61,  1001,  0,  0,  0,  -11,  -26,  -37
239537, 1710333470, "2024/3/13 12:37:50",  4,  -55,  1006,  0,  0,  -1,  -11,  -26,  -36
239737, 1710333470, "2024/3/13 12:37:50",  8,  -59,  1007,  0,  -1,  -1,  -11,  -25,  -36
239937, 1710333471, "2024/3/13 12:37:51",  6,  -62,  1001,  0,  -1,  0,  -12,  -25,  -36
240137, 1710333471, "2024/3/13 12:37:51",  4,  -58,  1000,  0,  0,  -1,  -9,  -25,  -35
240337, 1710333471, "2024/3/13 12:37:51",  0,  -62,  1006,  0,  0,  -1,  -13,  -26,  -36
240537, 1710333471, "2024/3/13 12:37:51",  1,  -54,  1004,  0,  0,  -1,  -12,  -27,  -36
240737, 1710333471, "2024/3/13 12:37:51",  4,  -57,  1001,  0,  0,  -1,  -12,  -25,  -36
240937, 1710333472, "2024/3/13 12:37:52",  5,  -57,  1005,  0,  0,  -1,  -11,  -26,  -36
241137, 1710333472, "2024/3/13 12:37:52",  6,  -57,  1003,  0,  0,  -1,  -12,  -26,  -35
241337, 1710333472, "2024/3/13 12:37:52",  0,  -56,  1001,  0,  0,  0,  -12,  -25,  -35
241537, 1710333472, "2024/3/13 12:37:52",  6,  -50,  1002,  0,  -1,  -1,  -12,  -26,  -36
241737, 1710333472, "2024/3/13 12:37:52",  6,  -56,  1001,  0,  0,  -1,  -12,  -25,  -36
241937, 1710333473, "2024/3/13 12:37:53",  5,  -60,  1002,  0,  0,  0,  -11,  -26,  -36
242137, 1710333473, "2024/3/13 12:37:53",  6,  -58,  1005,  0,  0,  0,  -11,  -25,  -37
242337, 1710333473, "2024/3/13 12:37:53",  8,  -57,  1004,  0,  0,  -1,  -13,  -26,  -38
242537, 1710333473, "2024/3/13 12:37:53",  5,  -62,  1006,  0,  0,  -1,  -12,  -27,  -36
242737, 1710333473, "2024/3/13 12:37:53",  5,  -60,  1006,  0,  0,  -1,  -12,  -26,  -37
242937, 1710333474, "2024/3/13 12:37:54",  7,  -57,  1004,  0,  -1,  -1,  -11,  -25,  -36
243137, 1710333474, "2024/3/13 12:37:54",  2,  -54,  1006,  0,  0,  -1,  -12,  -27,  -36
243337, 1710333474, "2024/3/13 12:37:54",  7,  -55,  1001,  0,  0,  0,  -12,  -27,  -37
243537, 1710333474, "2024/3/13 12:37:54",  10,  -57,  1006,  0,  -1,  -1,  -11,  -26,  -36
243737, 1710333474, "2024/3/13 12:37:54",  2,  -54,  1005,  0,  0,  0,  -12,  -27,  -36
243937, 1710333475, "2024/3/13 12:37:55",  4,  -52,  1003,  0,  0,  -1,  -11,  -26,  -37
244137, 1710333475, "2024/3/13 12:37:55",  1,  -59,  1002,  0,  0,  0,  -12,  -27,  -36
244337, 1710333475, "2024/3/13 12:37:55",  8,  -60,  1001,  0,  -1,  0,  -12,  -24,  -36
244537, 1710333475, "2024/3/13 12:37:55",  3,  -61,  1006,  0,  0,  -1,  -12,  -25,  -36
244737, 1710333475, "2024/3/13 12:37:55",  4,  -62,  1002,  0,  -1,  -1,  -11,  -25,  -35
244937, 1710333476, "2024/3/13 12:37:56",  5,  -54,  1002,  0,  0,  0,  -12,  -25,  -37
245137, 1710333476, "2024/3/13 12:37:56",  0,  -62,  1002,  0,  0,  0,  -13,  -27,  -35
245337, 1710333476, "2024/3/13 12:37:56",  2,  -54,  1002,  0,  0,  -1,  -11,  -26,  -35
245537, 1710333476, "2024/3/13 12:37:56",  7,  -59,  1004,  0,  0,  0,  -11,  -26,  -36
245737, 1710333476, "2024/3/13 12:37:56",  1,  -61,  1002,  0,  -1,  -1,  -12,  -25,  -36
245937, 1710333477, "2024/3/13 12:37:57",  5,  -57,  1000,  0,  0,  -1,  -13,  -25,  -36
246137, 1710333477, "2024/3/13 12:37:57",  3,  -60,  1005,  0,  0,  -1,  -11,  -26,  -34
246337, 1710333477, "2024/3/13 12:37:57",  9,  -57,  1004,  0,  0,  -1,  -13,  -26,  -36
246537, 1710333477, "2024/3/13 12:37:57",  5,  -54,  1005,  0,  0,  -1,  -13,  -26,  -36
246737, 1710333477, "2024/3/13 12:37:57",  5,  -60,  1004,  0,  0,  -1,  -11,  -27,  -36
246937, 1710333478, "2024/3/13 12:37:58",  6,  -61,  1001,  0,  0,  -1,  -10,  -26,  -35
247137, 1710333478, "2024/3/13 12:37:58",  2,  -62,  1006,  0,  0,  -1,  -13,  -25,  -36
247337, 1710333478, "2024/3/13 12:37:58",  5,  -57,  1005,  0,  0,  -1,  -12,  -27,  -36
247537, 1710333478, "2024/3/13 12:37:58",  8,  -57,  1002,  0,  0,  -1,  -13,  -25,  -36
247737, 1710333478, "2024/3/13 12:37:58",  9,  -58,  1007,  0,  0,  0,  -12,  -25,  -36
247937, 1710333479, "2024/3/13 12:37:59",  6,  -59,  1002,  0,  0,  0,  -11,  -26,  -35
248137, 1710333479, "2024/3/13 12:37:59",  7,  -58,  1002,  0,  0,  0,  -13,  -27,  -35
248337, 1710333479, "2024/3/13 12:37:59",  2,  -56,  1002,  0,  0,  -1,  -13,  -26,  -36
248537, 1710333479, "2024/3/13 12:37:59",  1,  -56,  1006,  0,  0,  -1,  -11,  -26,  -35
248737, 1710333479, "2024/3/13 12:37:59",  3,  -56,  1001,  0,  0,  -1,  -13,  -27,  -36
248937, 1710333480, "2024/3/13 12:38:0",  2,  -59,  1007,  0,  -1,  -1,  -11,  -27,  -36
249137, 1710333480, "2024/3/13 12:38:0",  8,  -57,  1004,  0,  0,  -1,  -12,  -27,  -36
249337, 1710333480, "2024/3/13 12:38:0",  7,  -53,  1007,  0,  0,  0,  -11,  -26,  -36
249537, 1710333480, "2024/3/13 12:38:0",  0,  -55,  1005,  0,  0,  0,  -12,  -27,  -34
249737, 1710333480, "2024/3/13 12:38:0",  8,  -64,  1004,  0,  0,  0,  -11,  -25,  -36
249937, 1710333481, "2024/3/13 12:38:1",  3,  -61,  1003,  0,  0,  -1,  -10,  -25,  -36
250137, 1710333481, "2024/3/13 12:38:1",  3,  -56,  1003,  0,  0,  -1,  -12,  -25,  -35
250337, 1710333481, "2024/3/13 12:38:1",  3,  -55,  1001,  0,  0,  -1,  -11,  -27,  -36
250537, 1710333481, "2024/3/13 12:38:1",  9,  -57,  1001,  0,  0,  -1,  -11,  -25,  -36
250737, 1710333481, "2024/3/13 12:38:1",  -1,  -62,  1004,  0,  0,  -1,  -11,  -26,  -36
250937, 1710333482, "2024/3/13 12:38:2",  0,  -59,  1002,  0,  -1,  -1,  -11,  -27,  -37
251137, 1710333482, "2024/3/13 12:38:2",  2,  -50,  1002,  0,  0,  0,  -12,  -26,  -36
251337, 1710333482, "2024/3/13 12:38:2",  6,  -55,  1003,  0,  0,  0,  -11,  -25,  -37
251537, 1710333482, "2024/3/13 12:38:2",  5,  -56,  1005,  0,  0,  -1,  -12,  -26,  -35
251737, 1710333482, "2024/3/13 12:38:2",  6,  -59,  1003,  0,  0,  -1,  -11,  -25,  -37
251937, 1710333483, "2024/3/13 12:38:3",  6,  -60,  1002,  0,  0,  -1,  -12,  -26,  -36
252137, 1710333483, "2024/3/13 12:38:3",  0,  -60,  1005,  0,  0,  0,  -12,  -27,  -38
252337, 1710333483, "2024/3/13 12:38:3",  2,  -64,  1000,  0,  0,  -1,  -12,  -26,  -36
252537, 1710333483, "2024/3/13 12:38:3",  -1,  -56,  1001,  0,  0,  -1,  -11,  -23,  -36
252737, 1710333483, "2024/3/13 12:38:3",  0,  -56,  1004,  0,  0,  0,  -11,  -27,  -36
252937, 1710333484, "2024/3/13 12:38:4",  5,  -57,  1000,  0,  0,  0,  -13,  -25,  -38
253137, 1710333484, "2024/3/13 12:38:4",  2,  -61,  1003,  0,  -1,  0,  -12,  -25,  -37
253337, 1710333484, "2024/3/13 12:38:4",  8,  -55,  1002,  0,  0,  0,  -13,  -26,  -36
253537, 1710333484, "2024/3/13 12:38:4",  3,  -57,  1003,  0,  0,  -1,  -12,  -25,  -36
253737, 1710333484, "2024/3/13 12:38:4",  3,  -59,  1004,  0,  -1,  -1,  -12,  -25,  -34
253937, 1710333485, "2024/3/13 12:38:5",  7,  -59,  1002,  0,  0,  0,  -11,  -26,  -36
254137, 1710333485, "2024/3/13 12:38:5",  4,  -60,  1006,  0,  0,  0,  -12,  -25,  -37
254337, 1710333485, "2024/3/13 12:38:5",  3,  -60,  1004,  0,  0,  0,  -11,  -25,  -36
254537, 1710333485, "2024/3/13 12:38:5",  5,  -60,  1003,  0,  0,  0,  -12,  -26,  -37
254737, 1710333485, "2024/3/13 12:38:5",  2,  -53,  1004,  0,  0,  -1,  -12,  -26,  -36
254937, 1710333486, "2024/3/13 12:38:6",  4,  -60,  1001,  0,  0,  0,  -11,  -27,  -36
255137, 1710333486, "2024/3/13 12:38:6",  3,  -58,  1004,  0,  0,  -1,  -11,  -26,  -36
255337, 1710333486, "2024/3/13 12:38:6",  8,  -54,  1004,  0,  0,  -1,  -12,  -25,  -37
255537, 1710333486, "2024/3/13 12:38:6",  1,  -59,  1003,  0,  0,  -1,  -12,  -27,  -35
255737, 1710333486, "2024/3/13 12:38:6",  1,  -57,  1000,  0,  0,  0,  -12,  -26,  -34
255937, 1710333487, "2024/3/13 12:38:7",  4,  -56,  1011,  0,  0,  -1,  -12,  -24,  -35
256137, 1710333487, "2024/3/13 12:38:7",  1,  -57,  1005,  0,  -1,  -1,  -11,  -24,  -36
256337, 1710333487, "2024/3/13 12:38:7",  6,  -56,  1002,  0,  0,  -1,  -12,  -27,  -36
256537, 1710333487, "2024/3/13 12:38:7",  7,  -54,  1004,  0,  0,  0,  -11,  -25,  -36
256737, 1710333487, "2024/3/13 12:38:7",  7,  -57,  1005,  0,  0,  0,  -12,  -26,  -36
256937, 1710333488, "2024/3/13 12:38:8",  6,  -56,  1002,  0,  0,  0,  -13,  -27,  -36
257137, 1710333488, "2024/3/13 12:38:8",  8,  -62,  1004,  0,  0,  0,  -13,  -25,  -35
257337, 1710333488, "2024/3/13 12:38:8",  4,  -59,  1003,  0,  -1,  -1,  -11,  -26,  -35
257537, 1710333488, "2024/3/13 12:38:8",  7,  -57,  1007,  0,  -1,  -1,  -11,  -28,  -36
257737, 1710333488, "2024/3/13 12:38:8",  13,  -50,  999,  0,  -1,  -1,  -12,  -28,  -35
257937, 1710333489, "2024/3/13 12:38:9",  8,  -48,  1000,  0,  0,  -1,  -13,  -26,  -36
258137, 1710333489, "2024/3/13 12:38:9",  11,  -57,  1000,  0,  0,  0,  -12,  -26,  -36
258337, 1710333489, "2024/3/13 12:38:9",  8,  -55,  1003,  0,  0,  0,  -12,  -24,  -36
258537, 1710333489, "2024/3/13 12:38:9",  6,  -57,  1008,  0,  0,  0,  -12,  -26,  -35
258737, 1710333489, "2024/3/13 12:38:9",  2,  -55,  1003,  0,  0,  0,  -13,  -26,  -36
258937, 1710333490, "2024/3/13 12:38:10",  12,  -59,  1003,  0,  -1,  0,  -11,  -25,  -35
259137, 1710333490, "2024/3/13 12:38:10",  4,  -59,  1001,  0,  -1,  -1,  -11,  -25,  -35
259337, 1710333490, "2024/3/13 12:38:10",  3,  -56,  1003,  0,  0,  0,  -12,  -25,  -35
259537, 1710333490, "2024/3/13 12:38:10",  4,  -56,  1004,  0,  0,  0,  -12,  -27,  -36
259737, 1710333490, "2024/3/13 12:38:10",  7,  -53,  998,  0,  0,  0,  -10,  -27,  -37
259937, 1710333491, "2024/3/13 12:38:11",  3,  -55,  1003,  0,  -1,  -1,  -10,  -27,  -36
260137, 1710333491, "2024/3/13 12:38:11",  3,  -60,  1006,  0,  0,  0,  -11,  -26,  -35
260337, 1710333491, "2024/3/13 12:38:11",  8,  -62,  1004,  0,  0,  -1,  -12,  -25,  -35
260537, 1710333491, "2024/3/13 12:38:11",  8,  -58,  1005,  0,  0,  -1,  -12,  -27,  -35
260737, 1710333491, "2024/3/13 12:38:11",  4,  -58,  1005,  0,  0,  0,  -12,  -25,  -34
260937, 1710333492, "2024/3/13 12:38:12",  6,  -64,  1001,  0,  0,  0,  -10,  -26,  -34
261137, 1710333492, "2024/3/13 12:38:12",  2,  -61,  1004,  0,  0,  -1,  -12,  -25,  -35
261337, 1710333492, "2024/3/13 12:38:12",  4,  -61,  1002,  0,  0,  0,  -12,  -25,  -36
261537, 1710333492, "2024/3/13 12:38:12",  1,  -54,  1003,  0,  -1,  -1,  -13,  -27,  -36
261737, 1710333492, "2024/3/13 12:38:12",  3,  -59,  1005,  0,  0,  -1,  -11,  -26,  -36
261937, 1710333493, "2024/3/13 12:38:13",  5,  -57,  1004,  0,  0,  -1,  -12,  -28,  -36
262137, 1710333493, "2024/3/13 12:38:13",  4,  -38,  1023,  0,  -1,  -1,  -12,  -27,  -37
262337, 1710333493, "2024/3/13 12:38:13",  0,  -58,  1006,  0,  0,  0,  -12,  -25,  -35
262537, 1710333493, "2024/3/13 12:38:13",  5,  -60,  1006,  0,  -1,  0,  -12,  -25,  -34
262737, 1710333493, "2024/3/13 12:38:13",  6,  -62,  1002,  0,  0,  0,  -12,  -26,  -36
262937, 1710333494, "2024/3/13 12:38:14",  5,  -58,  1003,  0,  0,  -1,  -12,  -25,  -35
263137, 1710333494, "2024/3/13 12:38:14",  8,  -59,  1009,  0,  0,  -1,  -11,  -26,  -36
263337, 1710333494, "2024/3/13 12:38:14",  8,  -61,  1002,  0,  0,  0,  -12,  -25,  -35
263537, 1710333494, "2024/3/13 12:38:14",  4,  -60,  1002,  0,  0,  0,  -12,  -25,  -35
263737, 1710333494, "2024/3/13 12:38:14",  7,  -56,  1007,  0,  0,  -1,  -11,  -26,  -34
263937, 1710333495, "2024/3/13 12:38:15",  6,  -57,  1004,  0,  0,  0,  -12,  -26,  -36
264137, 1710333495, "2024/3/13 12:38:15",  5,  -62,  1006,  0,  0,  -1,  -11,  -25,  -35
264337, 1710333495, "2024/3/13 12:38:15",  8,  -54,  1001,  0,  -1,  -1,  -11,  -26,  -36
264537, 1710333495, "2024/3/13 12:38:15",  8,  -57,  1003,  0,  0,  -1,  -11,  -26,  -34
264737, 1710333495, "2024/3/13 12:38:15",  7,  -55,  1002,  0,  0,  -1,  -12,  -26,  -35
264937, 1710333496, "2024/3/13 12:38:16",  10,  -63,  1005,  0,  0,  0,  -12,  -26,  -36
265137, 1710333496, "2024/3/13 12:38:16",  5,  -62,  1002,  0,  -1,  -1,  -11,  -26,  -36
265337, 1710333496, "2024/3/13 12:38:16",  8,  -62,  1005,  0,  0,  -1,  -12,  -27,  -34
265537, 1710333496, "2024/3/13 12:38:16",  8,  -52,  1004,  0,  -1,  -1,  -10,  -25,  -37
265737, 1710333496, "2024/3/13 12:38:16",  8,  -57,  1004,  0,  0,  -1,  -12,  -25,  -38
265937, 1710333497, "2024/3/13 12:38:17",  5,  -57,  1001,  0,  0,  -1,  -11,  -27,  -36
266137, 1710333497, "2024/3/13 12:38:17",  6,  -56,  1004,  0,  0,  -1,  -12,  -26,  -35
266337, 1710333497, "2024/3/13 12:38:17",  6,  -58,  1000,  0,  0,  0,  -11,  -26,  -34
266537, 1710333497, "2024/3/13 12:38:17",  9,  -59,  1003,  0,  0,  -1,  -11,  -26,  -35
266737, 1710333497, "2024/3/13 12:38:17",  8,  -59,  1000,  0,  -1,  -1,  -11,  -26,  -35
266937, 1710333498, "2024/3/13 12:38:18",  5,  -55,  1004,  0,  0,  0,  -13,  -25,  -36
267137, 1710333498, "2024/3/13 12:38:18",  7,  -53,  1001,  0,  0,  -1,  -12,  -25,  -37
267337, 1710333498, "2024/3/13 12:38:18",  6,  -59,  1004,  0,  0,  -1,  -11,  -27,  -35
267537, 1710333498, "2024/3/13 12:38:18",  9,  -59,  1001,  0,  0,  -1,  -12,  -25,  -36
267737, 1710333498, "2024/3/13 12:38:18",  7,  -53,  1006,  0,  0,  -1,  -12,  -26,  -35
267937, 1710333499, "2024/3/13 12:38:19",  7,  -53,  1006,  0,  0,  -1,  -13,  -26,  -36
268137, 1710333499, "2024/3/13 12:38:19",  11,  -62,  1005,  0,  -1,  -1,  -12,  -25,  -36
268337, 1710333499, "2024/3/13 12:38:19",  12,  -57,  1006,  0,  0,  -1,  -11,  -27,  -35
268537, 1710333499, "2024/3/13 12:38:19",  3,  -58,  1003,  0,  0,  -1,  -11,  -26,  -35
268737, 1710333499, "2024/3/13 12:38:19",  4,  -58,  1004,  0,  0,  0,  -13,  -25,  -35
268937, 1710333500, "2024/3/13 12:38:20",  8,  -58,  1001,  0,  0,  -1,  -11,  -25,  -34
269137, 1710333500, "2024/3/13 12:38:20",  7,  -63,  1004,  0,  0,  -1,  -12,  -26,  -35
269337, 1710333500, "2024/3/13 12:38:20",  10,  -58,  1003,  0,  0,  0,  -12,  -27,  -35
269537, 1710333500, "2024/3/13 12:38:20",  10,  -59,  1004,  0,  -1,  -1,  -11,  -25,  -37
269737, 1710333500, "2024/3/13 12:38:20",  9,  -52,  1008,  0,  0,  -1,  -11,  -28,  -35
269937, 1710333501, "2024/3/13 12:38:21",  3,  -59,  1001,  0,  0,  -1,  -11,  -25,  -35
270137, 1710333501, "2024/3/13 12:38:21",  10,  -59,  1003,  0,  0,  0,  -12,  -28,  -36
270337, 1710333501, "2024/3/13 12:38:21",  2,  -64,  1003,  0,  0,  -1,  -11,  -25,  -35
270537, 1710333501, "2024/3/13 12:38:21",  4,  -58,  1003,  0,  0,  0,  -11,  -27,  -35
270737, 1710333501, "2024/3/13 12:38:21",  5,  -62,  1007,  0,  -1,  -1,  -11,  -25,  -36
270937, 1710333502, "2024/3/13 12:38:22",  11,  -59,  1001,  0,  0,  -1,  -12,  -26,  -34
271137, 1710333502, "2024/3/13 12:38:22",  7,  -55,  1006,  0,  0,  -1,  -10,  -26,  -33
271337, 1710333502, "2024/3/13 12:38:22",  6,  -59,  1003,  0,  0,  0,  -12,  -25,  -34
271537, 1710333502, "2024/3/13 12:38:22",  6,  -56,  1005,  0,  0,  -1,  -13,  -27,  -35
271737, 1710333502, "2024/3/13 12:38:22",  5,  -61,  1003,  0,  0,  0,  -11,  -26,  -36
271937, 1710333503, "2024/3/13 12:38:23",  5,  -59,  1003,  0,  -1,  0,  -12,  -25,  -35
272137, 1710333503, "2024/3/13 12:38:23",  9,  -60,  1002,  0,  -1,  -1,  -12,  -26,  -35
272337, 1710333503, "2024/3/13 12:38:23",  9,  -62,  1006,  0,  0,  0,  -12,  -27,  -34
272537, 1710333503, "2024/3/13 12:38:23",  4,  -57,  1004,  0,  0,  -1,  -11,  -28,  -35
272737, 1710333503, "2024/3/13 12:38:23",  5,  -61,  1006,  0,  0,  0,  -11,  -26,  -36
272937, 1710333504, "2024/3/13 12:38:24",  4,  -63,  999,  0,  0,  0,  -12,  -27,  -34
273137, 1710333504, "2024/3/13 12:38:24",  8,  -60,  1005,  0,  0,  -1,  -10,  -25,  -34
273337, 1710333504, "2024/3/13 12:38:24",  6,  -54,  1006,  0,  0,  -1,  -11,  -27,  -35
273537, 1710333504, "2024/3/13 12:38:24",  4,  -60,  1004,  0,  0,  -1,  -10,  -24,  -37
273737, 1710333504, "2024/3/13 12:38:24",  9,  -59,  1004,  0,  -1,  -1,  -13,  -27,  -35
273937, 1710333505, "2024/3/13 12:38:25",  8,  -57,  1004,  0,  -1,  -1,  -12,  -26,  -36
274137, 1710333505, "2024/3/13 12:38:25",  6,  -60,  1004,  0,  0,  0,  -11,  -26,  -35
274337, 1710333505, "2024/3/13 12:38:25",  7,  -54,  1006,  0,  0,  -1,  -12,  -26,  -35
274537, 1710333505, "2024/3/13 12:38:25",  6,  -57,  1003,  0,  0,  -1,  -11,  -27,  -35
274737, 1710333505, "2024/3/13 12:38:25",  4,  -60,  1002,  0,  0,  0,  -11,  -27,  -35
274937, 1710333506, "2024/3/13 12:38:26",  9,  -56,  1003,  0,  0,  -1,  -12,  -27,  -35
275137, 1710333506, "2024/3/13 12:38:26",  5,  -56,  1000,  0,  0,  -1,  -10,  -27,  -35
275337, 1710333506, "2024/3/13 12:38:26",  7,  -63,  1003,  0,  0,  -1,  -11,  -26,  -34
275537, 1710333506, "2024/3/13 12:38:26",  6,  -54,  1004,  0,  0,  0,  -11,  -24,  -37
275737, 1710333506, "2024/3/13 12:38:26",  8,  -60,  1005,  0,  0,  -1,  -11,  -27,  -36
275937, 1710333507, "2024/3/13 12:38:27",  9,  -64,  1004,  0,  0,  -1,  -12,  -25,  -35
276137, 1710333507, "2024/3/13 12:38:27",  11,  -60,  1003,  0,  0,  0,  -12,  -27,  -35
276337, 1710333507, "2024/3/13 12:38:27",  7,  -59,  1001,  0,  0,  -1,  -12,  -27,  -36
276537, 1710333507, "2024/3/13 12:38:27",  7,  -57,  1007,  0,  0,  -1,  -13,  -25,  -36
276737, 1710333507, "2024/3/13 12:38:27",  7,  -59,  1005,  0,  0,  -1,  -12,  -25,  -35
276937, 1710333508, "2024/3/13 12:38:28",  12,  -61,  1001,  0,  0,  0,  -11,  -27,  -35
277137, 1710333508, "2024/3/13 12:38:28",  4,  -56,  1000,  0,  0,  0,  -12,  -27,  -35
277337, 1710333508, "2024/3/13 12:38:28",  9,  -55,  1003,  0,  0,  -1,  -11,  -27,  -37
277537, 1710333508, "2024/3/13 12:38:28",  8,  -61,  1003,  0,  0,  -1,  -13,  -25,  -36
277737, 1710333508, "2024/3/13 12:38:28",  6,  -58,  1006,  0,  0,  -1,  -12,  -26,  -36
277937, 1710333509, "2024/3/13 12:38:29",  6,  -62,  1005,  0,  0,  -1,  -12,  -27,  -35
278137, 1710333509, "2024/3/13 12:38:29",  4,  -61,  1003,  0,  0,  0,  -12,  -25,  -37
278337, 1710333509, "2024/3/13 12:38:29",  10,  -56,  1005,  0,  0,  -1,  -11,  -26,  -35
278537, 1710333509, "2024/3/13 12:38:29",  -1,  -62,  1002,  0,  0,  0,  -12,  -26,  -35
278737, 1710333509, "2024/3/13 12:38:29",  4,  -62,  1006,  0,  0,  -1,  -11,  -26,  -35
278937, 1710333510, "2024/3/13 12:38:30",  2,  -55,  1004,  0,  0,  -1,  -11,  -26,  -34
279137, 1710333510, "2024/3/13 12:38:30",  4,  -58,  997,  0,  0,  0,  -11,  -26,  -35
279337, 1710333510, "2024/3/13 12:38:30",  2,  -56,  1002,  0,  -1,  -1,  -13,  -25,  -36
279537, 1710333510, "2024/3/13 12:38:30",  6,  -56,  1007,  0,  0,  -1,  -9,  -25,  -36
279737, 1710333510, "2024/3/13 12:38:30",  11,  -55,  1002,  0,  0,  -1,  -12,  -27,  -35
279937, 1710333511, "2024/3/13 12:38:31",  11,  -59,  1001,  0,  0,  0,  -11,  -25,  -35
280137, 1710333511, "2024/3/13 12:38:31",  7,  -60,  1006,  0,  -1,  -1,  -12,  -28,  -36
280337, 1710333511, "2024/3/13 12:38:31",  9,  -60,  1006,  0,  0,  -1,  -12,  -27,  -35
280537, 1710333511, "2024/3/13 12:38:31",  10,  -56,  1002,  0,  0,  -1,  -11,  -27,  -35
280737, 1710333511, "2024/3/13 12:38:31",  9,  -64,  1000,  0,  0,  0,  -12,  -27,  -37
280937, 1710333512, "2024/3/13 12:38:32",  5,  -54,  1003,  0,  0,  -1,  -11,  -28,  -36
281137, 1710333512, "2024/3/13 12:38:32",  7,  -61,  1001,  0,  0,  -1,  -11,  -26,  -36
281337, 1710333512, "2024/3/13 12:38:32",  6,  -62,  1005,  0,  -1,  -1,  -11,  -26,  -35
281537, 1710333512, "2024/3/13 12:38:32",  7,  -58,  1004,  0,  0,  -1,  -12,  -27,  -34
281737, 1710333512, "2024/3/13 12:38:32",  7,  -56,  1003,  0,  0,  -1,  -11,  -27,  -36
281937, 1710333513, "2024/3/13 12:38:33",  2,  -55,  1000,  0,  0,  0,  -11,  -26,  -36
282137, 1710333513, "2024/3/13 12:38:33",  7,  -58,  1002,  0,  0,  -1,  -12,  -26,  -36
282337, 1710333513, "2024/3/13 12:38:33",  7,  -57,  1005,  0,  0,  0,  -11,  -25,  -36
282537, 1710333513, "2024/3/13 12:38:33",  8,  -65,  1006,  0,  0,  0,  -12,  -24,  -36
282737, 1710333513, "2024/3/13 12:38:33",  8,  -60,  1006,  0,  0,  -1,  -11,  -26,  -35
282937, 1710333514, "2024/3/13 12:38:34",  6,  -62,  1003,  0,  0,  0,  -13,  -26,  -37
283137, 1710333514, "2024/3/13 12:38:34",  3,  -59,  1002,  0,  -1,  0,  -10,  -26,  -35
283337, 1710333514, "2024/3/13 12:38:34",  9,  -60,  1003,  0,  0,  -1,  -12,  -27,  -36
283537, 1710333514, "2024/3/13 12:38:34",  5,  -61,  1000,  0,  0,  0,  -11,  -26,  -36
283737, 1710333514, "2024/3/13 12:38:34",  4,  -62,  1004,  0,  0,  -1,  -12,  -25,  -36
283937, 1710333515, "2024/3/13 12:38:35",  5,  -55,  1002,  0,  0,  -1,  -11,  -25,  -35
284137, 1710333515, "2024/3/13 12:38:35",  9,  -56,  1004,  0,  -1,  0,  -11,  -25,  -36
284337, 1710333515, "2024/3/13 12:38:35",  6,  -59,  1000,  0,  0,  -1,  -12,  -26,  -37
284537, 1710333515, "2024/3/13 12:38:35",  8,  -62,  1003,  0,  0,  -1,  -12,  -26,  -36
284737, 1710333515, "2024/3/13 12:38:35",  4,  -60,  998,  0,  0,  -1,  -10,  -26,  -35
284937, 1710333516, "2024/3/13 12:38:36",  8,  -56,  1002,  0,  0,  0,  -12,  -28,  -37
285137, 1710333516, "2024/3/13 12:38:36",  8,  -56,  1005,  0,  0,  0,  -12,  -27,  -36
285337, 1710333516, "2024/3/13 12:38:36",  7,  -58,  1001,  0,  0,  -1,  -11,  -26,  -35
285537, 1710333516, "2024/3/13 12:38:36",  8,  -62,  1003,  0,  0,  -1,  -12,  -26,  -36
285737, 1710333516, "2024/3/13 12:38:36",  6,  -58,  1003,  0,  0,  -1,  -11,  -25,  -35
285937, 1710333517, "2024/3/13 12:38:37",  4,  -62,  1006,  0,  0,  -1,  -11,  -26,  -36
286137, 1710333517, "2024/3/13 12:38:37",  5,  -55,  1005,  0,  0,  -1,  -10,  -26,  -35
286337, 1710333517, "2024/3/13 12:38:37",  4,  -55,  1005,  0,  0,  -1,  -12,  -25,  -36
286537, 1710333517, "2024/3/13 12:38:37",  7,  -60,  1003,  0,  0,  0,  -13,  -27,  -35
286737, 1710333517, "2024/3/13 12:38:37",  8,  -58,  1006,  0,  -1,  0,  -10,  -25,  -36
286937, 1710333518, "2024/3/13 12:38:38",  0,  -58,  1001,  0,  -1,  0,  -11,  -26,  -36
287137, 1710333518, "2024/3/13 12:38:38",  5,  -58,  1001,  0,  0,  -1,  -11,  -25,  -34
287337, 1710333518, "2024/3/13 12:38:38",  5,  -53,  1002,  0,  0,  -1,  -12,  -26,  -36
287537, 1710333518, "2024/3/13 12:38:38",  6,  -60,  1003,  0,  -1,  0,  -10,  -26,  -37
287737, 1710333518, "2024/3/13 12:38:38",  10,  -58,  1002,  0,  0,  0,  -12,  -25,  -35
287937, 1710333519, "2024/3/13 12:38:39",  7,  -61,  1006,  0,  0,  -1,  -11,  -28,  -34
288137, 1710333519, "2024/3/13 12:38:39",  8,  -59,  1003,  0,  0,  0,  -11,  -27,  -35
288337, 1710333519, "2024/3/13 12:38:39",  5,  -61,  1003,  0,  0,  -1,  -11,  -27,  -36
288537, 1710333519, "2024/3/13 12:38:39",  7,  -57,  1004,  0,  0,  -1,  -11,  -26,  -36
288737, 1710333519, "2024/3/13 12:38:39",  3,  -58,  1006,  0,  0,  -1,  -12,  -26,  -34
288937, 1710333520, "2024/3/13 12:38:40",  8,  -59,  1005,  0,  0,  0,  -10,  -27,  -36
289137, 1710333520, "2024/3/13 12:38:40",  9,  -58,  1002,  0,  0,  0,  -13,  -25,  -36
289337, 1710333520, "2024/3/13 12:38:40",  6,  -63,  1003,  0,  0,  -1,  -12,  -25,  -35
289537, 1710333520, "2024/3/13 12:38:40",  8,  -57,  1003,  0,  -1,  -1,  -11,  -26,  -35
289737, 1710333520, "2024/3/13 12:38:40",  7,  -58,  1005,  0,  0,  -1,  -11,  -25,  -36
289937, 1710333521, "2024/3/13 12:38:41",  10,  -56,  1004,  0,  0,  -1,  -12,  -26,  -37
290137, 1710333521, "2024/3/13 12:38:41",  5,  -63,  1006,  0,  0,  -1,  -12,  -26,  -35
290337, 1710333521, "2024/3/13 12:38:41",  8,  -60,  1002,  0,  0,  0,  -12,  -25,  -36
290537, 1710333521, "2024/3/13 12:38:41",  7,  -52,  1001,  0,  0,  -1,  -13,  -26,  -37
290737, 1710333521, "2024/3/13 12:38:41",  9,  -59,  1004,  0,  0,  -1,  -12,  -27,  -36
290937, 1710333522, "2024/3/13 12:38:42",  8,  -58,  1003,  0,  -1,  -1,  -10,  -26,  -35
291137, 1710333522, "2024/3/13 12:38:42",  6,  -58,  1005,  0,  0,  -1,  -11,  -28,  -35
291337, 1710333522, "2024/3/13 12:38:42",  4,  -58,  1003,  0,  0,  -1,  -11,  -25,  -35
291537, 1710333522, "2024/3/13 12:38:42",  8,  -56,  1004,  0,  0,  0,  -12,  -25,  -36
291737, 1710333522, "2024/3/13 12:38:42",  7,  -57,  1003,  0,  0,  -1,  -12,  -27,  -37
291937, 1710333523, "2024/3/13 12:38:43",  5,  -62,  1002,  0,  -1,  0,  -11,  -25,  -36
292137, 1710333523, "2024/3/13 12:38:43",  6,  -59,  1006,  0,  0,  -1,  -12,  -26,  -35
292337, 1710333523, "2024/3/13 12:38:43",  9,  -59,  1004,  0,  0,  -1,  -12,  -26,  -35
292537, 1710333523, "2024/3/13 12:38:43",  9,  -58,  1005,  0,  0,  -1,  -11,  -24,  -36
292737, 1710333523, "2024/3/13 12:38:43",  3,  -62,  1006,  0,  0,  -1,  -13,  -26,  -35
292937, 1710333524, "2024/3/13 12:38:44",  10,  -53,  1003,  0,  0,  -1,  -10,  -27,  -36
293137, 1710333524, "2024/3/13 12:38:44",  6,  -59,  1004,  0,  0,  -1,  -10,  -26,  -36
293337, 1710333524, "2024/3/13 12:38:44",  9,  -61,  1004,  0,  -1,  -1,  -13,  -25,  -35
293537, 1710333524, "2024/3/13 12:38:44",  8,  -59,  1003,  0,  0,  -1,  -13,  -26,  -36
293737, 1710333524, "2024/3/13 12:38:44",  3,  -62,  1004,  0,  0,  -1,  -12,  -26,  -36
293937, 1710333525, "2024/3/13 12:38:45",  5,  -57,  1002,  0,  0,  0,  -12,  -27,  -35
294137, 1710333525, "2024/3/13 12:38:45",  9,  -60,  1004,  0,  0,  0,  -11,  -26,  -36
294337, 1710333525, "2024/3/13 12:38:45",  4,  -57,  1003,  0,  -1,  -1,  -11,  -27,  -34
294537, 1710333525, "2024/3/13 12:38:45",  10,  -56,  1005,  0,  0,  -1,  -11,  -26,  -37
294737, 1710333525, "2024/3/13 12:38:45",  9,  -56,  1004,  0,  0,  0,  -11,  -26,  -35
294937, 1710333526, "2024/3/13 12:38:46",  10,  -58,  1005,  0,  -1,  -1,  -11,  -27,  -36
295137, 1710333526, "2024/3/13 12:38:46",  8,  -57,  1002,  0,  -1,  -1,  -10,  -27,  -36
295337, 1710333526, "2024/3/13 12:38:46",  10,  -59,  1004,  0,  0,  -1,  -13,  -25,  -35
295537, 1710333526, "2024/3/13 12:38:46",  7,  -62,  1003,  0,  0,  -1,  -10,  -27,  -36
295737, 1710333526, "2024/3/13 12:38:46",  8,  -56,  1008,  0,  0,  -1,  -12,  -26,  -34
295937, 1710333527, "2024/3/13 12:38:47",  11,  -58,  1003,  0,  0,  0,  -11,  -26,  -36
296137, 1710333527, "2024/3/13 12:38:47",  6,  -61,  1005,  0,  -1,  -1,  -12,  -26,  -35
296337, 1710333527, "2024/3/13 12:38:47",  4,  -59,  1001,  0,  0,  -1,  -11,  -26,  -35
296537, 1710333527, "2024/3/13 12:38:47",  8,  -58,  1003,  0,  -1,  -1,  -12,  -26,  -36
296737, 1710333527, "2024/3/13 12:38:47",  5,  -58,  1001,  0,  0,  -1,  -12,  -26,  -36
296937, 1710333528, "2024/3/13 12:38:48",  7,  -59,  1002,  0,  0,  -1,  -12,  -27,  -35
297137, 1710333528, "2024/3/13 12:38:48",  5,  -57,  1008,  0,  0,  0,  -11,  -27,  -36
297337, 1710333528, "2024/3/13 12:38:48",  6,  -58,  1003,  0,  -1,  -1,  -12,  -27,  -36
297537, 1710333528, "2024/3/13 12:38:48",  9,  -60,  1002,  0,  0,  -1,  -11,  -27,  -35
297737, 1710333528, "2024/3/13 12:38:48",  5,  -56,  1006,  0,  0,  0,  -11,  -25,  -35
297937, 1710333529, "2024/3/13 12:38:49",  5,  -65,  1003,  0,  0,  0,  -12,  -26,  -36
298137, 1710333529, "2024/3/13 12:38:49",  7,  -58,  1002,  0,  0,  -1,  -11,  -24,  -35
298337, 1710333529, "2024/3/13 12:38:49",  7,  -63,  1006,  0,  0,  -1,  -12,  -25,  -35
298537, 1710333529, "2024/3/13 12:38:49",  8,  -60,  1002,  0,  -1,  -1,  -13,  -26,  -35
298737, 1710333529, "2024/3/13 12:38:49",  12,  -61,  1006,  0,  0,  0,  -11,  -27,  -37
298937, 1710333530, "2024/3/13 12:38:50",  7,  -65,  1002,  0,  0,  -1,  -11,  -25,  -35
299137, 1710333530, "2024/3/13 12:38:50",  9,  -55,  1002,  0,  0,  -1,  -12,  -27,  -35
299337, 1710333530, "2024/3/13 12:38:50",  4,  -62,  1005,  0,  0,  -1,  -12,  -27,  -35
299537, 1710333530, "2024/3/13 12:38:50",  7,  -62,  1002,  0,  0,  0,  -12,  -25,  -35
299737, 1710333530, "2024/3/13 12:38:50",  11,  -61,  1002,  0,  -1,  -1,  -11,  -25,  -35
299937, 1710333531, "2024/3/13 12:38:51",  6,  -63,  1007,  0,  0,  0,  -12,  -27,  -34
300137, 1710333531, "2024/3/13 12:38:51",  8,  -59,  1003,  0,  0,  -1,  -10,  -26,  -36
300337, 1710333531, "2024/3/13 12:38:51",  37,  -56,  1016,  1,  1,  -1,  -10,  -27,  -35
300537, 1710333531, "2024/3/13 12:38:51",  4,  -62,  1003,  0,  0,  0,  -11,  -26,  -36
300737, 1710333531, "2024/3/13 12:38:51",  0,  -56,  1004,  0,  0,  0,  -13,  -26,  -35
300937, 1710333532, "2024/3/13 12:38:52",  2,  -56,  1001,  0,  -1,  -1,  -12,  -26,  -37
301137, 1710333532, "2024/3/13 12:38:52",  5,  -57,  1003,  0,  0,  0,  -11,  -26,  -36
301337, 1710333532, "2024/3/13 12:38:52",  5,  -59,  1007,  0,  0,  0,  -11,  -26,  -36
301537, 1710333532, "2024/3/13 12:38:52",  10,  -56,  1005,  0,  0,  0,  -12,  -27,  -36
301737, 1710333532, "2024/3/13 12:38:52",  5,  -60,  1004,  0,  0,  0,  -12,  -24,  -37
301937, 1710333533, "2024/3/13 12:38:53",  4,  -58,  1005,  0,  0,  0,  -11,  -24,  -36
302137, 1710333533, "2024/3/13 12:38:53",  3,  -60,  1002,  0,  0,  0,  -11,  -26,  -35
302337, 1710333533, "2024/3/13 12:38:53",  9,  -62,  1002,  0,  0,  -1,  -12,  -26,  -36
302537, 1710333533, "2024/3/13 12:38:53",  3,  -62,  1000,  0,  0,  -1,  -12,  -26,  -35
302737, 1710333533, "2024/3/13 12:38:53",  6,  -61,  1002,  0,  -1,  0,  -11,  -27,  -36
302937, 1710333534, "2024/3/13 12:38:54",  2,  -60,  1002,  0,  -1,  -1,  -14,  -25,  -36
303137, 1710333534, "2024/3/13 12:38:54",  6,  -61,  1005,  0,  0,  -1,  -10,  -27,  -36
303337, 1710333534, "2024/3/13 12:38:54",  2,  -57,  1004,  0,  0,  0,  -12,  -26,  -36
303537, 1710333534, "2024/3/13 12:38:54",  4,  -60,  1002,  0,  0,  0,  -12,  -26,  -36
303737, 1710333534, "2024/3/13 12:38:54",  1,  -58,  1002,  0,  0,  0,  -10,  -26,  -38
303937, 1710333535, "2024/3/13 12:38:55",  1,  -59,  1001,  1,  0,  -1,  -11,  -27,  -36
304137, 1710333535, "2024/3/13 12:38:55",  8,  -60,  1004,  0,  0,  0,  -13,  -25,  -36
304337, 1710333535, "2024/3/13 12:38:55",  7,  -54,  1006,  0,  0,  -1,  -11,  -25,  -37
304537, 1710333535, "2024/3/13 12:38:55",  4,  -61,  1004,  0,  0,  0,  -11,  -25,  -37
304737, 1710333535, "2024/3/13 12:38:55",  5,  -60,  1003,  0,  0,  -1,  -10,  -27,  -37
304937, 1710333536, "2024/3/13 12:38:56",  3,  -66,  1005,  0,  0,  -1,  -11,  -26,  -36
305137, 1710333536, "2024/3/13 12:38:56",  3,  -56,  1005,  0,  0,  -1,  -11,  -27,  -36
305337, 1710333536, "2024/3/13 12:38:56",  4,  -53,  1003,  0,  -1,  -1,  -10,  -27,  -37
305537, 1710333536, "2024/3/13 12:38:56",  2,  -57,  1001,  0,  0,  -1,  -11,  -24,  -36
305737, 1710333536, "2024/3/13 12:38:56",  0,  -53,  1005,  0,  0,  0,  -10,  -26,  -36
305937, 1710333537, "2024/3/13 12:38:57",  4,  -58,  1005,  0,  0,  -1,  -11,  -26,  -36
306137, 1710333537, "2024/3/13 12:38:57",  7,  -61,  1006,  0,  0,  0,  -10,  -27,  -37
306337, 1710333537, "2024/3/13 12:38:57",  5,  -57,  1003,  0,  0,  0,  -12,  -27,  -36
306537, 1710333537, "2024/3/13 12:38:57",  4,  -59,  1000,  0,  0,  -1,  -12,  -25,  -38
306737, 1710333537, "2024/3/13 12:38:57",  6,  -54,  1006,  0,  -1,  -1,  -12,  -25,  -36
306937, 1710333538, "2024/3/13 12:38:58",  0,  -52,  1005,  0,  0,  -1,  -11,  -26,  -36
307137, 1710333538, "2024/3/13 12:38:58",  5,  -61,  1006,  0,  0,  0,  -11,  -25,  -35
307337, 1710333538, "2024/3/13 12:38:58",  7,  -58,  1007,  0,  0,  0,  -11,  -26,  -37
307537, 1710333538, "2024/3/13 12:38:58",  6,  -52,  1003,  0,  0,  -1,  -12,  -27,  -36
307737, 1710333538, "2024/3/13 12:38:58",  3,  -62,  1001,  0,  0,  0,  -12,  -27,  -36
307937, 1710333539, "2024/3/13 12:38:59",  1,  -53,  1004,  0,  0,  0,  -12,  -27,  -36
308137, 1710333539, "2024/3/13 12:38:59",  8,  -57,  1007,  0,  0,  0,  -12,  -27,  -36
308337, 1710333539, "2024/3/13 12:38:59",  2,  -55,  1003,  0,  0,  -1,  -9,  -25,  -37
308537, 1710333539, "2024/3/13 12:38:59",  7,  -55,  1002,  0,  0,  -1,  -12,  -25,  -37
308737, 1710333539, "2024/3/13 12:38:59",  6,  -62,  1005,  0,  0,  -1,  -12,  -26,  -35
308937, 1710333540, "2024/3/13 12:39:0",  5,  -60,  1003,  0,  0,  -1,  -11,  -26,  -36
309137, 1710333540, "2024/3/13 12:39:0",  6,  -59,  1004,  0,  -1,  0,  -13,  -27,  -36
309337, 1710333540, "2024/3/13 12:39:0",  5,  -59,  1004,  0,  -1,  -1,  -11,  -27,  -36
309537, 1710333540, "2024/3/13 12:39:0",  2,  -61,  1006,  0,  0,  -1,  -11,  -26,  -37
309737, 1710333540, "2024/3/13 12:39:0",  4,  -59,  1004,  0,  0,  -1,  -11,  -26,  -37
309937, 1710333541, "2024/3/13 12:39:1",  8,  -62,  1005,  0,  0,  -1,  -11,  -26,  -37
310137, 1710333541, "2024/3/13 12:39:1",  4,  -59,  1006,  0,  0,  -1,  -12,  -26,  -37
310337, 1710333541, "2024/3/13 12:39:1",  1,  -59,  1005,  0,  0,  0,  -10,  -26,  -37
310537, 1710333541, "2024/3/13 12:39:1",  1,  -60,  1004,  0,  0,  -1,  -12,  -27,  -36
310737, 1710333541, "2024/3/13 12:39:1",  11,  -56,  1003,  0,  0,  -1,  -11,  -25,  -36
310937, 1710333542, "2024/3/13 12:39:2",  6,  -55,  1004,  0,  -1,  0,  -11,  -26,  -35
311137, 1710333542, "2024/3/13 12:39:2",  7,  -60,  1007,  0,  0,  -1,  -12,  -27,  -36
311337, 1710333542, "2024/3/13 12:39:2",  1,  -58,  1008,  0,  0,  -1,  -11,  -26,  -36
311537, 1710333542, "2024/3/13 12:39:2",  6,  -57,  1006,  0,  0,  -1,  -12,  -25,  -36
311737, 1710333542, "2024/3/13 12:39:2",  4,  -54,  1007,  0,  0,  0,  -11,  -26,  -37
311937, 1710333543, "2024/3/13 12:39:3",  6,  -58,  1001,  0,  -1,  -1,  -10,  -25,  -36
312137, 1710333543, "2024/3/13 12:39:3",  6,  -57,  1003,  0,  -1,  -1,  -11,  -25,  -38
312337, 1710333543, "2024/3/13 12:39:3",  9,  -57,  1006,  0,  0,  0,  -11,  -26,  -36
312537, 1710333543, "2024/3/13 12:39:3",  6,  -55,  1006,  0,  0,  -1,  -12,  -26,  -37
312737, 1710333543, "2024/3/13 12:39:3",  5,  -60,  1005,  0,  0,  -1,  -11,  -26,  -38
312937, 1710333544, "2024/3/13 12:39:4",  8,  -58,  1000,  0,  0,  0,  -12,  -26,  -36
313137, 1710333544, "2024/3/13 12:39:4",  3,  -54,  1004,  0,  0,  0,  -12,  -27,  -36
313337, 1710333544, "2024/3/13 12:39:4",  8,  -61,  1000,  0,  0,  -1,  -11,  -26,  -37
313537, 1710333544, "2024/3/13 12:39:4",  4,  -54,  1006,  0,  0,  -1,  -12,  -26,  -36
313737, 1710333544, "2024/3/13 12:39:4",  3,  -61,  1005,  0,  0,  0,  -11,  -26,  -37
313937, 1710333545, "2024/3/13 12:39:5",  6,  -61,  1005,  0,  0,  0,  -12,  -26,  -36
314137, 1710333545, "2024/3/13 12:39:5",  5,  -65,  1003,  0,  0,  -1,  -11,  -24,  -36
314337, 1710333545, "2024/3/13 12:39:5",  6,  -57,  1006,  0,  0,  0,  -10,  -25,  -37
314537, 1710333545, "2024/3/13 12:39:5",  3,  -55,  1006,  0,  0,  -1,  -11,  -27,  -36
314737, 1710333545, "2024/3/13 12:39:5",  1,  -58,  1004,  0,  -1,  0,  -12,  -27,  -36
314937, 1710333546, "2024/3/13 12:39:6",  3,  -57,  1004,  0,  0,  0,  -11,  -27,  -36
315137, 1710333546, "2024/3/13 12:39:6",  6,  -54,  1002,  0,  -1,  -1,  -11,  -26,  -36
315337, 1710333546, "2024/3/13 12:39:6",  0,  -57,  1004,  0,  0,  -1,  -12,  -26,  -37
315537, 1710333546, "2024/3/13 12:39:6",  2,  -57,  1003,  0,  0,  0,  -12,  -26,  -37
315737, 1710333546, "2024/3/13 12:39:6",  2,  -55,  1004,  0,  0,  0,  -12,  -26,  -37
315937, 1710333547, "2024/3/13 12:39:7",  3,  -63,  1004,  0,  -1,  -1,  -11,  -27,  -35
316137, 1710333547, "2024/3/13 12:39:7",  4,  -56,  1006,  0,  0,  -1,  -11,  -28,  -37
316337, 1710333547, "2024/3/13 12:39:7",  7,  -60,  1006,  0,  0,  -1,  -12,  -27,  -35
316537, 1710333547, "2024/3/13 12:39:7",  5,  -60,  1004,  0,  0,  -1,  -10,  -26,  -38
316737, 1710333547, "2024/3/13 12:39:7",  8,  -55,  1005,  0,  0,  0,  -12,  -26,  -36
316937, 1710333548, "2024/3/13 12:39:8",  6,  -54,  1003,  0,  0,  -1,  -13,  -26,  -36
317137, 1710333548, "2024/3/13 12:39:8",  6,  -55,  1002,  0,  0,  -1,  -11,  -25,  -36
317337, 1710333548, "2024/3/13 12:39:8",  4,  -61,  1003,  0,  0,  0,  -10,  -27,  -36
317537, 1710333548, "2024/3/13 12:39:8",  4,  -54,  1003,  0,  -1,  -1,  -12,  -25,  -36
317737, 1710333548, "2024/3/13 12:39:8",  5,  -57,  1001,  0,  0,  -1,  -11,  -25,  -37
317937, 1710333549, "2024/3/13 12:39:9",  5,  -61,  1003,  0,  -1,  -1,  -11,  -25,  -35
318137, 1710333549, "2024/3/13 12:39:9",  4,  -60,  1003,  0,  0,  0,  -12,  -26,  -36
318337, 1710333549, "2024/3/13 12:39:9",  0,  -54,  1004,  0,  -1,  -1,  -12,  -26,  -35
318537, 1710333549, "2024/3/13 12:39:9",  3,  -55,  1004,  0,  0,  0,  -8,  -27,  -35
318737, 1710333549, "2024/3/13 12:39:9",  8,  -56,  1003,  0,  -1,  0,  -12,  -26,  -36
318937, 1710333550, "2024/3/13 12:39:10",  5,  -60,  1005,  0,  0,  -1,  -11,  -26,  -35
319137, 1710333550, "2024/3/13 12:39:10",  30,  -56,  977,  0,  0,  -1,  -11,  -27,  -34
319337, 1710333550, "2024/3/13 12:39:10",  6,  -57,  998,  0,  0,  0,  -10,  -25,  -35
319537, 1710333550, "2024/3/13 12:39:10",  4,  -60,  999,  0,  0,  -1,  -9,  -25,  -34
319737, 1710333550, "2024/3/13 12:39:10",  3,  -53,  1004,  0,  0,  0,  -8,  -27,  -35
319937, 1710333551, "2024/3/13 12:39:11",  0,  -52,  1003,  0,  -1,  0,  -11,  -27,  -35
320137, 1710333551, "2024/3/13 12:39:11",  -3,  -54,  1000,  0,  -1,  0,  -11,  -25,  -35
320337, 1710333551, "2024/3/13 12:39:11",  6,  -54,  1002,  0,  0,  0,  -14,  -25,  -36
320537, 1710333551, "2024/3/13 12:39:11",  3,  -62,  1006,  0,  0,  0,  -12,  -26,  -36
320737, 1710333551, "2024/3/13 12:39:11",  9,  -56,  1006,  0,  0,  -1,  -12,  -26,  -37
320937, 1710333552, "2024/3/13 12:39:12",  8,  -56,  1004,  0,  0,  0,  -11,  -28,  -37
321137, 1710333552, "2024/3/13 12:39:12",  2,  -55,  1003,  0,  0,  -1,  -12,  -26,  -36
321337, 1710333552, "2024/3/13 12:39:12",  3,  -56,  1007,  0,  0,  -1,  -11,  -25,  -36
321537, 1710333552, "2024/3/13 12:39:12",  5,  -55,  1004,  0,  0,  -1,  -11,  -27,  -37
321737, 1710333552, "2024/3/13 12:39:12",  6,  -59,  1003,  0,  0,  -1,  -11,  -26,  -37
321937, 1710333553, "2024/3/13 12:39:13",  -1,  -57,  1002,  0,  0,  -1,  -11,  -27,  -36
322137, 1710333553, "2024/3/13 12:39:13",  3,  -62,  1005,  0,  0,  -1,  -10,  -27,  -36
322337, 1710333553, "2024/3/13 12:39:13",  4,  -54,  1002,  0,  0,  0,  -12,  -26,  -36
322537, 1710333553, "2024/3/13 12:39:13",  3,  -57,  1004,  0,  0,  0,  -11,  -25,  -36
322737, 1710333553, "2024/3/13 12:39:13",  2,  -53,  1004,  0,  0,  -1,  -11,  -27,  -35
322937, 1710333554, "2024/3/13 12:39:14",  4,  -63,  1000,  0,  0,  -1,  -10,  -26,  -36
323137, 1710333554, "2024/3/13 12:39:14",  10,  -58,  1004,  0,  -1,  -1,  -13,  -28,  -36
323337, 1710333554, "2024/3/13 12:39:14",  8,  -59,  1002,  0,  0,  0,  -10,  -26,  -35
323537, 1710333554, "2024/3/13 12:39:14",  1,  -59,  1003,  0,  0,  0,  -10,  -27,  -36
323737, 1710333554, "2024/3/13 12:39:14",  1,  -55,  1000,  0,  -1,  -1,  -11,  -27,  -36
323937, 1710333555, "2024/3/13 12:39:15",  5,  -58,  1005,  0,  0,  0,  -11,  -26,  -34
324137, 1710333555, "2024/3/13 12:39:15",  7,  -52,  1002,  0,  -1,  -1,  -10,  -27,  -36
324337, 1710333555, "2024/3/13 12:39:15",  2,  -63,  1003,  0,  0,  -1,  -12,  -25,  -37
324537, 1710333555, "2024/3/13 12:39:15",  4,  -62,  1005,  0,  0,  -1,  -11,  -24,  -34
324737, 1710333555, "2024/3/13 12:39:15",  6,  -60,  1004,  0,  0,  0,  -12,  -26,  -35
324937, 1710333556, "2024/3/13 12:39:16",  5,  -63,  1001,  0,  0,  0,  -13,  -25,  -34
325137, 1710333556, "2024/3/13 12:39:16",  5,  -54,  1003,  0,  0,  0,  -11,  -27,  -34
325337, 1710333556, "2024/3/13 12:39:16",  2,  -55,  1007,  0,  0,  -1,  -11,  -26,  -35
325537, 1710333556, "2024/3/13 12:39:16",  3,  -60,  1005,  0,  0,  0,  -11,  -26,  -37
325737, 1710333556, "2024/3/13 12:39:16",  4,  -57,  1005,  0,  -1,  -1,  -9,  -25,  -36
325937, 1710333557, "2024/3/13 12:39:17",  4,  -61,  1007,  0,  -1,  -1,  -11,  -27,  -36
326137, 1710333557, "2024/3/13 12:39:17",  4,  -57,  1005,  0,  0,  -1,  -10,  -27,  -33
326337, 1710333557, "2024/3/13 12:39:17",  5,  -56,  1006,  1,  0,  0,  -10,  -25,  -34
326537, 1710333557, "2024/3/13 12:39:17",  4,  -60,  1002,  0,  0,  -1,  -11,  -25,  -36
326737, 1710333557, "2024/3/13 12:39:17",  4,  -61,  1003,  0,  0,  -1,  -12,  -26,  -36
326937, 1710333558, "2024/3/13 12:39:18",  5,  -64,  1002,  0,  0,  0,  -11,  -27,  -36
327137, 1710333558, "2024/3/13 12:39:18",  5,  -56,  1004,  0,  0,  0,  -13,  -28,  -35
327337, 1710333558, "2024/3/13 12:39:18",  6,  -53,  1004,  0,  0,  -1,  -10,  -26,  -35
327537, 1710333558, "2024/3/13 12:39:18",  2,  -59,  1004,  0,  0,  -1,  -11,  -25,  -36
327737, 1710333558, "2024/3/13 12:39:18",  6,  -61,  1001,  0,  -1,  -1,  -10,  -25,  -36
327937, 1710333559, "2024/3/13 12:39:19",  7,  -58,  1003,  0,  0,  -1,  -11,  -28,  -35
328137, 1710333559, "2024/3/13 12:39:19",  1,  -58,  1007,  0,  -1,  -1,  -11,  -26,  -36
328337, 1710333559, "2024/3/13 12:39:19",  4,  -64,  1008,  0,  -1,  -1,  -11,  -28,  -35
328537, 1710333559, "2024/3/13 12:39:19",  7,  -61,  1005,  0,  0,  -1,  -11,  -26,  -36
328737, 1710333559, "2024/3/13 12:39:19",  1,  -59,  1002,  0,  0,  -1,  -12,  -25,  -36
328937, 1710333560, "2024/3/13 12:39:20",  8,  -55,  1005,  0,  0,  0,  -11,  -25,  -36
329137, 1710333560, "2024/3/13 12:39:20",  2,  -58,  1003,  0,  0,  -1,  -13,  -26,  -36
329337, 1710333560, "2024/3/13 12:39:20",  3,  -54,  1005,  0,  0,  -1,  -10,  -26,  -34
329537, 1710333560, "2024/3/13 12:39:20",  6,  -57,  1008,  0,  0,  0,  -11,  -26,  -37
329737, 1710333560, "2024/3/13 12:39:20",  4,  -60,  1005,  0,  0,  -1,  -11,  -27,  -36
329937, 1710333561, "2024/3/13 12:39:21",  1,  -58,  1002,  0,  0,  -1,  -12,  -27,  -36
330137, 1710333561, "2024/3/13 12:39:21",  6,  -56,  1004,  0,  0,  -1,  -11,  -27,  -36
330337, 1710333561, "2024/3/13 12:39:21",  2,  -55,  1003,  0,  0,  -1,  -11,  -26,  -35
330537, 1710333561, "2024/3/13 12:39:21",  3,  -59,  1007,  0,  0,  -1,  -11,  -26,  -35
330737, 1710333561, "2024/3/13 12:39:21",  6,  -58,  1004,  0,  0,  -1,  -12,  -25,  -35
330937, 1710333562, "2024/3/13 12:39:22",  1,  -55,  1007,  0,  0,  0,  -11,  -25,  -35
331137, 1710333562, "2024/3/13 12:39:22",  4,  -61,  998,  0,  0,  -1,  -11,  -25,  -36
331337, 1710333562, "2024/3/13 12:39:22",  3,  -65,  1004,  0,  0,  -1,  -12,  -26,  -35
331537, 1710333562, "2024/3/13 12:39:22",  2,  -61,  1004,  0,  0,  0,  -11,  -28,  -34
331737, 1710333562, "2024/3/13 12:39:22",  3,  -62,  1002,  0,  0,  0,  -11,  -27,  -36
331937, 1710333563, "2024/3/13 12:39:23",  1,  -58,  1002,  0,  0,  -1,  -11,  -26,  -36
332137, 1710333563, "2024/3/13 12:39:23",  4,  -57,  1002,  0,  0,  -1,  -12,  -25,  -33
332337, 1710333563, "2024/3/13 12:39:23",  2,  -54,  1000,  0,  0,  -1,  -9,  -26,  -35
332537, 1710333563, "2024/3/13 12:39:23",  0,  -55,  1003,  0,  0,  -1,  -10,  -27,  -36
332737, 1710333563, "2024/3/13 12:39:23",  1,  -58,  1004,  0,  0,  0,  -11,  -25,  -37
332937, 1710333564, "2024/3/13 12:39:24",  4,  -58,  1002,  0,  0,  0,  -11,  -25,  -36
333137, 1710333564, "2024/3/13 12:39:24",  3,  -56,  1007,  0,  0,  0,  -11,  -27,  -35
333337, 1710333564, "2024/3/13 12:39:24",  8,  -54,  1002,  0,  -1,  0,  -10,  -26,  -36
333537, 1710333564, "2024/3/13 12:39:24",  7,  -60,  1005,  0,  0,  -1,  -12,  -25,  -35
333737, 1710333564, "2024/3/13 12:39:24",  1,  -60,  1003,  0,  0,  -1,  -10,  -26,  -36
333937, 1710333565, "2024/3/13 12:39:25",  5,  -62,  1004,  0,  0,  -1,  -11,  -26,  -36
334137, 1710333565, "2024/3/13 12:39:25",  3,  -44,  1005,  0,  0,  -1,  -13,  -27,  -35
334337, 1710333565, "2024/3/13 12:39:25",  2,  -54,  1002,  0,  0,  0,  -11,  -25,  -35
334537, 1710333565, "2024/3/13 12:39:25",  8,  -60,  1001,  0,  0,  0,  -11,  -27,  -35
334737, 1710333565, "2024/3/13 12:39:25",  8,  -59,  1006,  0,  -1,  0,  -10,  -26,  -35
334937, 1710333566, "2024/3/13 12:39:26",  5,  -57,  1006,  0,  0,  0,  -10,  -26,  -35
335137, 1710333566, "2024/3/13 12:39:26",  8,  -63,  1004,  0,  0,  -1,  -11,  -26,  -35
335337, 1710333566, "2024/3/13 12:39:26",  5,  -67,  1005,  0,  0,  0,  -11,  -27,  -35
335537, 1710333566, "2024/3/13 12:39:26",  5,  -53,  1003,  0,  0,  -1,  -10,  -26,  -36
335737, 1710333567, "2024/3/13 12:39:27",  5,  -61,  1006,  0,  0,  -1,  -11,  -25,  -36
335937, 1710333567, "2024/3/13 12:39:27",  8,  -54,  1003,  0,  -1,  0,  -11,  -27,  -35
336137, 1710333567, "2024/3/13 12:39:27",  5,  -56,  1002,  0,  -1,  -1,  -11,  -27,  -36
336337, 1710333567, "2024/3/13 12:39:27",  3,  -59,  1003,  0,  -1,  -1,  -11,  -26,  -36
336537, 1710333567, "2024/3/13 12:39:27",  3,  -60,  1001,  0,  0,  0,  -12,  -25,  -35
336737, 1710333568, "2024/3/13 12:39:28",  3,  -50,  1006,  0,  0,  0,  -12,  -27,  -34
336937, 1710333568, "2024/3/13 12:39:28",  9,  -60,  1006,  0,  -1,  -1,  -11,  -27,  -37
337137, 1710333568, "2024/3/13 12:39:28",  3,  -59,  1007,  0,  0,  -1,  -12,  -25,  -36
337337, 1710333568, "2024/3/13 12:39:28",  5,  -60,  1004,  0,  0,  -1,  -10,  -27,  -35
337537, 1710333568, "2024/3/13 12:39:28",  2,  -57,  1005,  0,  0,  -1,  -12,  -25,  -35
337737, 1710333569, "2024/3/13 12:39:29",  6,  -60,  1005,  0,  0,  0,  -10,  -25,  -36
337937, 1710333569, "2024/3/13 12:39:29",  8,  -52,  1005,  0,  0,  -1,  -11,  -27,  -36
338137, 1710333569, "2024/3/13 12:39:29",  3,  -58,  1005,  0,  0,  -1,  -9,  -27,  -36
338337, 1710333569, "2024/3/13 12:39:29",  4,  -59,  1004,  0,  0,  -1,  -11,  -27,  -36
338537, 1710333569, "2024/3/13 12:39:29",  5,  -61,  1003,  0,  -1,  0,  -12,  -26,  -36
338737, 1710333570, "2024/3/13 12:39:30",  4,  -54,  1004,  0,  0,  -1,  -11,  -27,  -35
338937, 1710333570, "2024/3/13 12:39:30",  7,  -58,  1003,  0,  0,  -1,  -12,  -27,  -35
339137, 1710333570, "2024/3/13 12:39:30",  4,  -57,  1005,  0,  0,  -1,  -11,  -24,  -36
339337, 1710333570, "2024/3/13 12:39:30",  1,  -55,  1001,  0,  0,  -1,  -10,  -26,  -36
339537, 1710333570, "2024/3/13 12:39:30",  -2,  -54,  1003,  0,  0,  -1,  -12,  -25,  -36
339737, 1710333571, "2024/3/13 12:39:31",  2,  -57,  1001,  0,  0,  0,  -11,  -27,  -35
339937, 1710333571, "2024/3/13 12:39:31",  3,  -62,  1007,  0,  0,  -1,  -14,  -27,  -35
340137, 1710333571, "2024/3/13 12:39:31",  4,  -57,  1003,  0,  0,  -1,  -12,  -27,  -35
340337, 1710333571, "2024/3/13 12:39:31",  4,  -59,  1005,  0,  0,  -1,  -11,  -26,  -35
340537, 1710333571, "2024/3/13 12:39:31",  3,  -59,  1007,  0,  -1,  -1,  -11,  -28,  -34
340737, 1710333572, "2024/3/13 12:39:32",  6,  -57,  1003,  0,  0,  -1,  -12,  -26,  -36
340937, 1710333572, "2024/3/13 12:39:32",  6,  -60,  1005,  0,  0,  0,  -12,  -25,  -36
341137, 1710333572, "2024/3/13 12:39:32",  3,  -60,  1005,  0,  0,  0,  -11,  -27,  -35
341337, 1710333572, "2024/3/13 12:39:32",  4,  -55,  1003,  0,  0,  -1,  -12,  -27,  -36
341537, 1710333572, "2024/3/13 12:39:32",  3,  -57,  1002,  0,  0,  0,  -10,  -25,  -35
341737, 1710333573, "2024/3/13 12:39:33",  6,  -56,  1002,  0,  0,  0,  -10,  -28,  -35
341937, 1710333573, "2024/3/13 12:39:33",  7,  -56,  1003,  0,  0,  0,  -11,  -26,  -35
342137, 1710333573, "2024/3/13 12:39:33",  1,  -60,  1008,  0,  0,  0,  -11,  -25,  -36
342337, 1710333573, "2024/3/13 12:39:33",  4,  -52,  1005,  0,  0,  0,  -12,  -27,  -36
342537, 1710333573, "2024/3/13 12:39:33",  3,  -57,  1005,  0,  0,  -1,  -10,  -26,  -36
342737, 1710333574, "2024/3/13 12:39:34",  3,  -58,  1003,  0,  0,  -1,  -12,  -26,  -36
342937, 1710333574, "2024/3/13 12:39:34",  5,  -58,  1003,  0,  0,  -1,  -13,  -26,  -36
343137, 1710333574, "2024/3/13 12:39:34",  4,  -57,  1003,  0,  0,  0,  -12,  -27,  -34
343337, 1710333574, "2024/3/13 12:39:34",  8,  -60,  1005,  0,  0,  -1,  -13,  -26,  -37
343537, 1710333574, "2024/3/13 12:39:34",  7,  -58,  1003,  0,  -1,  0,  -12,  -25,  -36
343737, 1710333575, "2024/3/13 12:39:35",  2,  -59,  1007,  0,  0,  0,  -12,  -26,  -36
343937, 1710333575, "2024/3/13 12:39:35",  9,  -56,  1007,  0,  0,  0,  -11,  -26,  -37
344137, 1710333575, "2024/3/13 12:39:35",  4,  -56,  1005,  0,  0,  -1,  -10,  -26,  -37
344337, 1710333575, "2024/3/13 12:39:35",  4,  -64,  1004,  0,  0,  -1,  -12,  -26,  -37
344537, 1710333575, "2024/3/13 12:39:35",  4,  -64,  1004,  0,  0,  -1,  -12,  -25,  -37
344737, 1710333576, "2024/3/13 12:39:36",  9,  -57,  1008,  0,  0,  -1,  -12,  -25,  -36
344937, 1710333576, "2024/3/13 12:39:36",  4,  -61,  1006,  0,  0,  -1,  -12,  -27,  -35
345137, 1710333576, "2024/3/13 12:39:36",  10,  -56,  1006,  0,  0,  0,  -12,  -27,  -35
345337, 1710333576, "2024/3/13 12:39:36",  6,  -61,  1005,  0,  0,  0,  -11,  -26,  -36
345537, 1710333576, "2024/3/13 12:39:36",  3,  -61,  1003,  0,  0,  -1,  -11,  -25,  -36
345737, 1710333577, "2024/3/13 12:39:37",  5,  -58,  1006,  0,  0,  -1,  -12,  -26,  -36
345937, 1710333577, "2024/3/13 12:39:37",  4,  -52,  1005,  0,  0,  0,  -11,  -27,  -36
346137, 1710333577, "2024/3/13 12:39:37",  9,  -53,  1007,  0,  0,  -1,  -11,  -26,  -36
346337, 1710333577, "2024/3/13 12:39:37",  0,  -54,  1001,  0,  -1,  -1,  -12,  -26,  -33
346537, 1710333577, "2024/3/13 12:39:37",  9,  -56,  1002,  0,  -1,  -1,  -11,  -27,  -35
346737, 1710333578, "2024/3/13 12:39:38",  6,  -59,  1008,  0,  0,  -1,  -12,  -24,  -34
346937, 1710333578, "2024/3/13 12:39:38",  3,  -56,  1000,  0,  0,  -1,  -10,  -26,  -36
347137, 1710333578, "2024/3/13 12:39:38",  4,  -60,  1004,  0,  0,  -1,  -11,  -27,  -36
347337, 1710333578, "2024/3/13 12:39:38",  5,  -60,  1001,  0,  0,  0,  -12,  -27,  -36
347537, 1710333578, "2024/3/13 12:39:38",  6,  -57,  1006,  0,  0,  0,  -11,  -27,  -35
347737, 1710333579, "2024/3/13 12:39:39",  6,  -54,  1003,  0,  0,  0,  -12,  -27,  -36
347937, 1710333579, "2024/3/13 12:39:39",  5,  -60,  1002,  0,  0,  0,  -12,  -27,  -36
348137, 1710333579, "2024/3/13 12:39:39",  3,  -64,  1008,  0,  0,  -1,  -13,  -28,  -34
348337, 1710333579, "2024/3/13 12:39:39",  5,  -55,  1005,  0,  0,  -1,  -12,  -28,  -36
348537, 1710333579, "2024/3/13 12:39:39",  11,  -58,  1009,  0,  0,  0,  -11,  -28,  -36
348737, 1710333580, "2024/3/13 12:39:40",  10,  -59,  1001,  0,  0,  0,  -12,  -26,  -34
348937, 1710333580, "2024/3/13 12:39:40",  4,  -56,  1005,  0,  0,  -1,  -11,  -26,  -37
349137, 1710333580, "2024/3/13 12:39:40",  1,  -60,  1005,  0,  -1,  -1,  -11,  -25,  -36
349337, 1710333580, "2024/3/13 12:39:40",  3,  -59,  1003,  0,  0,  -1,  -10,  -27,  -34
349537, 1710333580, "2024/3/13 12:39:40",  3,  -60,  1005,  0,  0,  -1,  -12,  -26,  -36
349737, 1710333581, "2024/3/13 12:39:41",  6,  -58,  1003,  0,  0,  0,  -9,  -26,  -37
349937, 1710333581, "2024/3/13 12:39:41",  8,  -57,  1000,  0,  0,  -1,  -10,  -27,  -35
350137, 1710333581, "2024/3/13 12:39:41",  7,  -57,  1005,  0,  -1,  -1,  -11,  -26,  -36
350337, 1710333581, "2024/3/13 12:39:41",  5,  -59,  1003,  0,  0,  0,  -10,  -26,  -35
350537, 1710333581, "2024/3/13 12:39:41",  4,  -51,  1001,  0,  0,  -1,  -11,  -26,  -35
350737, 1710333582, "2024/3/13 12:39:42",  3,  -59,  1002,  0,  0,  0,  -11,  -26,  -36
350937, 1710333582, "2024/3/13 12:39:42",  8,  -55,  1003,  0,  0,  -1,  -11,  -26,  -35
351137, 1710333582, "2024/3/13 12:39:42",  0,  -57,  1006,  0,  0,  -1,  -12,  -26,  -34
351337, 1710333582, "2024/3/13 12:39:42",  7,  -55,  1002,  0,  0,  -1,  -12,  -27,  -36
351537, 1710333582, "2024/3/13 12:39:42",  7,  -60,  1005,  0,  0,  -1,  -12,  -27,  -35
351737, 1710333583, "2024/3/13 12:39:43",  11,  -56,  1005,  0,  0,  -1,  -12,  -27,  -35
351937, 1710333583, "2024/3/13 12:39:43",  6,  -55,  1006,  0,  -1,  -1,  -10,  -25,  -36
352137, 1710333583, "2024/3/13 12:39:43",  7,  -62,  1007,  0,  0,  0,  -13,  -25,  -36
352337, 1710333583, "2024/3/13 12:39:43",  11,  -54,  1003,  0,  0,  -1,  -11,  -25,  -35
352537, 1710333583, "2024/3/13 12:39:43",  4,  -58,  1004,  0,  0,  0,  -11,  -27,  -36
352737, 1710333584, "2024/3/13 12:39:44",  7,  -58,  1004,  0,  0,  0,  -13,  -26,  -35
352937, 1710333584, "2024/3/13 12:39:44",  1,  -60,  1004,  0,  0,  0,  -12,  -27,  -36
353137, 1710333584, "2024/3/13 12:39:44",  3,  -51,  1008,  0,  -1,  -1,  -11,  -26,  -34
353337, 1710333584, "2024/3/13 12:39:44",  7,  -58,  1007,  0,  0,  -1,  -12,  -25,  -35
353537, 1710333584, "2024/3/13 12:39:44",  6,  -60,  1007,  0,  0,  -1,  -12,  -25,  -35
353737, 1710333585, "2024/3/13 12:39:45",  6,  -58,  1002,  0,  -1,  0,  -11,  -26,  -35
353937, 1710333585, "2024/3/13 12:39:45",  7,  -61,  1002,  0,  0,  0,  -12,  -26,  -36
354137, 1710333585, "2024/3/13 12:39:45",  5,  -63,  1003,  0,  0,  -1,  -11,  -26,  -35
354337, 1710333585, "2024/3/13 12:39:45",  5,  -63,  1005,  0,  0,  -1,  -11,  -26,  -37
354537, 1710333585, "2024/3/13 12:39:45",  4,  -52,  1009,  0,  0,  0,  -12,  -26,  -38
354737, 1710333586, "2024/3/13 12:39:46",  4,  -53,  1005,  0,  0,  -1,  -11,  -25,  -38
354937, 1710333586, "2024/3/13 12:39:46",  2,  -56,  1004,  0,  0,  -1,  -12,  -26,  -36
355137, 1710333586, "2024/3/13 12:39:46",  4,  -60,  1004,  0,  0,  -1,  -10,  -26,  -37
355337, 1710333586, "2024/3/13 12:39:46",  9,  -53,  1002,  0,  0,  -1,  -11,  -27,  -36
355537, 1710333586, "2024/3/13 12:39:46",  5,  -53,  1004,  0,  0,  -1,  -12,  -25,  -35
355737, 1710333587, "2024/3/13 12:39:47",  7,  -55,  1006,  0,  0,  -1,  -11,  -26,  -36
355937, 1710333587, "2024/3/13 12:39:47",  6,  -56,  1006,  0,  -1,  -1,  -11,  -26,  -36
356137, 1710333587, "2024/3/13 12:39:47",  6,  -58,  1002,  0,  -1,  -1,  -11,  -27,  -37
356337, 1710333587, "2024/3/13 12:39:47",  4,  -64,  1003,  0,  0,  -1,  -11,  -25,  -36
356537, 1710333587, "2024/3/13 12:39:47",  9,  -60,  1000,  0,  0,  0,  -11,  -26,  -37
356737, 1710333588, "2024/3/13 12:39:48",  4,  -59,  1006,  0,  0,  -1,  -11,  -25,  -36
356937, 1710333588, "2024/3/13 12:39:48",  3,  -59,  1002,  0,  0,  0,  -12,  -26,  -37
357137, 1710333588, "2024/3/13 12:39:48",  7,  -58,  1005,  0,  0,  0,  -12,  -26,  -36
357337, 1710333588, "2024/3/13 12:39:48",  1,  -59,  1005,  0,  0,  0,  -11,  -27,  -38
357537, 1710333588, "2024/3/13 12:39:48",  9,  -58,  1003,  0,  0,  -1,  -10,  -26,  -37
357737, 1710333589, "2024/3/13 12:39:49",  7,  -54,  1000,  0,  -1,  -1,  -10,  -25,  -36
357937, 1710333589, "2024/3/13 12:39:49",  4,  -64,  1006,  0,  0,  0,  -11,  -26,  -38
358137, 1710333589, "2024/3/13 12:39:49",  2,  -55,  1008,  0,  0,  0,  -12,  -25,  -37
358337, 1710333589, "2024/3/13 12:39:49",  6,  -55,  1003,  0,  0,  0,  -12,  -26,  -36
358537, 1710333589, "2024/3/13 12:39:49",  11,  -54,  1003,  0,  0,  -1,  -13,  -27,  -37
358737, 1710333590, "2024/3/13 12:39:50",  4,  -58,  1004,  0,  0,  0,  -10,  -25,  -36
358937, 1710333590, "2024/3/13 12:39:50",  3,  -60,  1007,  0,  -1,  -1,  -11,  -28,  -34
359137, 1710333590, "2024/3/13 12:39:50",  0,  -53,  1004,  0,  0,  -1,  -13,  -27,  -36
359337, 1710333590, "2024/3/13 12:39:50",  3,  -60,  1004,  0,  0,  -1,  -11,  -25,  -37
359537, 1710333590, "2024/3/13 12:39:50",  5,  -56,  1005,  0,  0,  -1,  -13,  -26,  -37
359737, 1710333591, "2024/3/13 12:39:51",  3,  -62,  1004,  0,  0,  0,  -10,  -26,  -36
359937, 1710333591, "2024/3/13 12:39:51",  9,  -58,  1003,  0,  0,  -1,  -11,  -27,  -37
360137, 1710333591, "2024/3/13 12:39:51",  3,  -58,  1002,  0,  0,  -1,  -12,  -25,  -34
360337, 1710333591, "2024/3/13 12:39:51",  2,  -59,  1002,  0,  0,  0,  -11,  -27,  -37
360537, 1710333591, "2024/3/13 12:39:51",  3,  -63,  1004,  0,  0,  -1,  -11,  -27,  -36
360737, 1710333592, "2024/3/13 12:39:52",  4,  -52,  1004,  0,  -1,  -1,  -12,  -26,  -38
360937, 1710333592, "2024/3/13 12:39:52",  6,  -58,  1003,  0,  0,  0,  -11,  -26,  -36
361137, 1710333592, "2024/3/13 12:39:52",  4,  -58,  1005,  0,  0,  -1,  -12,  -26,  -37
361337, 1710333592, "2024/3/13 12:39:52",  7,  -55,  1002,  0,  0,  -1,  -12,  -25,  -37
361537, 1710333592, "2024/3/13 12:39:52",  2,  -56,  1007,  0,  0,  -1,  -12,  -27,  -36
361737, 1710333593, "2024/3/13 12:39:53",  5,  -61,  1007,  0,  0,  -1,  -10,  -25,  -37
361937, 1710333593, "2024/3/13 12:39:53",  6,  -57,  1004,  0,  0,  -1,  -11,  -26,  -35
362137, 1710333593, "2024/3/13 12:39:53",  6,  -57,  1006,  0,  0,  0,  -12,  -26,  -37
362337, 1710333593, "2024/3/13 12:39:53",  10,  -62,  1007,  0,  0,  0,  -10,  -26,  -36
362537, 1710333593, "2024/3/13 12:39:53",  6,  -58,  1002,  0,  0,  0,  -13,  -26,  -38
362737, 1710333594, "2024/3/13 12:39:54",  8,  -57,  1006,  0,  -1,  0,  -12,  -25,  -37
362937, 1710333594, "2024/3/13 12:39:54",  5,  -58,  1001,  0,  0,  -1,  -11,  -27,  -37
363137, 1710333594, "2024/3/13 12:39:54",  1,  -56,  1004,  0,  -1,  -1,  -11,  -27,  -36
363337, 1710333594, "2024/3/13 12:39:54",  7,  -59,  1003,  0,  0,  -1,  -12,  -26,  -37
363537, 1710333594, "2024/3/13 12:39:54",  5,  -57,  1005,  0,  0,  0,  -10,  -26,  -37
363737, 1710333595, "2024/3/13 12:39:55",  0,  -59,  1003,  0,  0,  0,  -11,  -25,  -37
363937, 1710333595, "2024/3/13 12:39:55",  5,  -61,  1007,  0,  -1,  -1,  -12,  -25,  -36
364137, 1710333595, "2024/3/13 12:39:55",  5,  -61,  1004,  0,  0,  -1,  -10,  -26,  -36
364337, 1710333595, "2024/3/13 12:39:55",  9,  -58,  1003,  0,  0,  -1,  -12,  -25,  -34
364537, 1710333595, "2024/3/13 12:39:55",  3,  -60,  1007,  0,  0,  0,  -11,  -27,  -37
364737, 1710333596, "2024/3/13 12:39:56",  6,  -62,  1002,  0,  0,  -1,  -13,  -24,  -38
364937, 1710333596, "2024/3/13 12:39:56",  5,  -60,  1002,  0,  0,  -1,  -12,  -27,  -38
365137, 1710333596, "2024/3/13 12:39:56",  6,  -56,  1000,  0,  -1,  -1,  -12,  -26,  -36
365337, 1710333596, "2024/3/13 12:39:56",  9,  -61,  1003,  0,  -1,  -1,  -11,  -25,  -36
365537, 1710333596, "2024/3/13 12:39:56",  1,  -60,  1005,  0,  0,  -1,  -12,  -26,  -36
365737, 1710333597, "2024/3/13 12:39:57",  6,  -60,  1003,  0,  0,  -1,  -12,  -26,  -37
365937, 1710333597, "2024/3/13 12:39:57",  0,  -61,  1003,  0,  0,  -1,  -12,  -27,  -37
366137, 1710333597, "2024/3/13 12:39:57",  0,  -56,  1004,  0,  0,  -1,  -11,  -27,  -36
366337, 1710333597, "2024/3/13 12:39:57",  2,  -60,  1001,  0,  0,  0,  -11,  -27,  -37
